accx_avg,accy_avg,accz_avg,gyrox_avg,gyroy_avg,gyroz_avg,magx_avg,magy_avg,magz_avg,accx_std,accy_std,accz_std,gyrox_std,gyroy_std,gyroz_std,magx_std,magy_std,magz_std,accx_max,accy_max,accz_max,gyrox_max,gyroy_max,gyroz_max,magx_max,magy_max,magz_max,accx_min,accy_min,accz_min,gyrox_min,gyroy_min,gyroz_min,magx_min,magy_min,magz_min,class
-0.697611,0.714069,0.161005,-0.11491,-0.707692,0.125671,0.70775,56.829,-76.701,0.0195534,0.0385648,0.0116636,6.02413,5.43087,4.83584,0.314728,0.53668,0.286484,0.751007,0.786713,0.184631,12.7892,12.773,10.8664,1.4031,57.9363,77.1412,0.660461,0.629578,0.130402,0.20668,0.0895121,0.453929,0.0584624,55.4224,76.0889,resting
-0.69515,0.712081,0.164518,0.349333,-0.546631,-0.257208,0.597026,57.0505,-76.8072,0.0200326,0.0420907,0.0131612,7.07161,6.11286,5.12436,0.427073,0.520753,0.416262,0.758301,0.807159,0.188904,17.9342,14.7505,11.6211,1.34464,57.8778,77.5504,0.659729,0.63205,0.138092,0.36418,0.277988,0.121428,0,55.7439,75.9135,resting
-0.696231,0.709112,0.164022,0.67494,-0.412465,0.15961,0.748496,57.0655,-76.328,0.0189478,0.0393675,0.0108422,6.60179,5.31601,4.94734,0.423596,0.477115,0.312724,0.759125,0.803101,0.180542,14.6967,14.0855,10.7286,1.69541,57.9363,77.0243,0.66153,0.649994,0.14621,0.12582,0.492012,0.103928,0.0876937,56.1532,75.6796,resting
-0.699128,0.705924,0.161128,0.562515,-0.261329,-0.0668286,0.620942,57.2082,-76.4255,0.0184175,0.0398475,0.0110817,6.77275,5.24885,4.92097,0.497843,0.685095,0.381202,0.755829,0.805115,0.180176,16.1842,11.1105,12.3561,1.75387,58.3455,77.375,0.673035,0.629517,0.134521,0.10832,0.032988,0.0885716,0,55.6855,75.6504,resting
-0.701057,0.701501,0.160176,0.773047,-0.904585,0.0588532,0.0540334,57.2285,-76.4777,0.0197066,0.0385243,0.0135903,7.05558,6.27168,4.7725,0.328839,0.585325,0.35058,0.760193,0.791473,0.189484,16.5342,14.173,10.2036,0.701549,58.1994,77.1704,0.66806,0.62616,0.129089,0.0491803,0.124512,0.0185716,0,55.1008,75.7673,resting
-0.704903,0.70574,0.157046,0.772517,-1.0064,-0.13842,-0.0487186,57.2764,-76.6062,0.0194604,0.0480464,0.0119115,7.07403,5.66053,5.52232,0.509748,0.586081,0.456186,0.754791,0.800446,0.177765,16.1317,12.318,12.2161,1.05232,58.1409,77.4335,0.677826,0.625519,0.120636,0.0558197,0.697988,0.173928,0.0292312,56.1824,75.7965,resting
-0.704693,0.696795,0.159166,1.27153,-0.599131,0.215293,-0.216134,57.0576,-76.3767,0.021412,0.0388753,0.011545,7.03542,6.29831,4.86351,0.457792,0.670179,0.38499,0.761902,0.770538,0.187134,17.2692,14.138,8.94357,1.28617,58.1409,76.995,0.655518,0.626129,0.137665,0.54582,0.107012,0.158572,0,55.247,75.5627,resting
-0.701927,0.705538,0.158597,0.941152,-0.531782,0.341503,0.22322,57.3401,-76.646,0.0197994,0.0413269,0.0118217,6.94903,6.06949,5.54084,0.383824,0.470125,0.398002,0.750458,0.798767,0.18045,16.7267,14.3305,12.8461,0.935399,58.1117,77.5504,0.671753,0.640961,0.134094,0.19582,0.295488,0.0164284,0.0292312,56.007,76.0012,resting
-0.708659,0.701932,0.156507,0.589562,-0.803827,-0.380769,-0.0983232,57.147,-76.5955,0.0188531,0.044759,0.015715,7.36357,6.59705,5.3474,0.445226,0.660253,0.315045,0.764069,0.802948,0.196991,15.0642,17.988,12.5836,0.876937,58.4332,77.375,0.682587,0.631958,0.125549,1.35082,0.067988,0.0535716,0,55.1593,75.855,resting
-0.704131,0.703897,0.15805,0.946985,-0.484585,0.10658,0.422524,57.0221,-76.7382,0.0231015,0.0398076,0.0116961,6.82047,6.07812,5.22564,0.46715,0.575027,0.382871,0.767273,0.800079,0.182159,17.0417,14.8205,14.0361,1.25694,57.9655,77.1704,0.666504,0.635345,0.132965,0.82582,0.457012,0.0689284,0,55.8024,75.6212,resting
-0.704465,0.702817,0.155901,0.887591,-0.543449,0.219006,0.341031,56.9389,-76.8834,0.0222453,0.0346461,0.0130267,6.7862,6.33217,4.80458,0.371472,0.554335,0.434011,0.75946,0.779297,0.186432,15.2042,15.223,9.43143,0.96463,58.1117,78.0474,0.673004,0.629089,0.128601,0.51082,0.404512,0.156428,0,55.9193,76.0596,resting
-0.706311,0.702072,0.155252,0.604941,-0.751327,-0.148495,0.0283455,56.8902,-76.6717,0.0180688,0.0410375,0.0130326,7.27287,6.22125,4.9001,0.431803,0.455287,0.366862,0.754303,0.778717,0.181793,14.2067,14.348,9.11643,1.19848,57.7609,77.6089,0.677368,0.633087,0.119415,0.96582,0.050488,0.191428,0,56.1532,76.0012,resting
-0.708862,0.699032,0.15011,0.860545,-0.934283,-0.430086,-0.224106,56.9956,-76.685,0.0193938,0.0265467,0.00976109,5.61787,4.48297,3.27854,0.492596,0.563311,0.385521,0.767395,0.754059,0.179199,14.3292,13.6655,8.45143,1.08156,58.1117,77.7843,0.670227,0.647156,0.131378,0.43418,0.107012,0.0164284,0,55.8901,75.4165,resting
-0.717114,0.690912,0.1466,1.8066,0.0138992,-0.658646,-0.66346,57.1594,-76.6372,0.0168752,0.0297726,0.0089692,5.70654,4.17765,4.6205,0.483568,0.622255,0.483007,0.765594,0.754608,0.170441,11.0283,11.1805,8.89107,1.63695,58.1994,77.6381,0.687592,0.619843,0.126892,0.65082,0.347988,0.0164284,0,55.4224,75.5042,resting
-0.712278,0.689867,0.163793,-0.675742,-7.16481,1.84757,-0.773298,57.3331,-77.36,0.0232845,0.0197442,0.033831,5.783,5.62116,3.52282,0.76226,0.538172,0.406954,0.763123,0.735291,0.239288,13.5833,21.3695,9.50143,1.7831,58.4624,78.3104,0.670502,0.656158,0.11618,0.10832,0.032988,0.173928,0,56.2116,76.5273,resting
-0.673444,0.715562,0.24792,0.459114,-0.187084,0.818248,0.971717,56.8228,-77.4946,0.0203913,0.0413768,0.0150635,11.4761,8.0538,5.90387,0.49377,0.568836,0.787072,0.729858,0.804535,0.295105,22.0008,26.458,9.29143,1.8708,57.7024,78.8658,0.619263,0.632629,0.220245,0.574181,0.015488,0.176072,0.204619,55.5101,76.3227,resting
-0.661513,0.719328,0.25345,-1.74749,1.26435,1.80832,1.75653,56.5766,-75.8231,0.0129771,0.0258782,0.0107438,5.05574,3.13798,3.92287,0.34627,0.594474,0.568842,0.689423,0.77002,0.275452,11.3717,7.03299,10.9539,2.42619,57.7317,76.7904,0.637115,0.654694,0.225677,0.55668,0.155488,0.278928,1.05232,54.9547,74.335,resting
-0.66393,0.723483,0.235643,1.53615,1.01564,-0.933343,2.06833,56.573,-74.6636,0.0209496,0.0242701,0.0126475,3.65164,2.62577,3.38941,0.514117,0.422486,0.452733,0.734314,0.773926,0.263214,9.14918,8.25799,6.75607,3.24467,57.527,75.475,0.62439,0.661713,0.212799,0.714181,0.247012,0.176072,0.993861,55.7732,73.7211,resting
-0.671719,0.722128,0.211565,1.24289,-0.00890473,0.388702,1.65555,56.6678,-75.4794,0.0142531,0.0350165,0.0141526,5.97658,3.44669,4.66806,0.378936,0.486958,0.380595,0.710297,0.790009,0.241058,14.6092,8.83549,9.59107,2.36773,57.4686,76.1473,0.647705,0.650116,0.179901,0.20668,0.050488,0.0164283,0.643087,55.4516,74.6565,resting
-0.672663,0.71976,0.202495,0.865318,-0.161632,0.250293,1.64315,56.5084,-75.6256,0.012702,0.0285704,0.0128355,6.49542,3.02117,4.41702,0.371827,0.603121,0.364961,0.712738,0.803436,0.231842,17.0592,10.2355,10.7636,2.57235,57.3809,76.4396,0.647705,0.664185,0.177948,0.45832,0.015488,0.578572,0.906168,54.8962,74.7735,resting
-0.677707,0.726948,0.195805,1.26941,-0.779435,-1.03463,1.58291,56.7059,-75.6761,0.0156426,0.0365907,0.0136518,6.67993,4.33323,4.63309,0.307011,0.608304,0.347715,0.726685,0.822906,0.220123,13.1567,11.7055,10.3611,2.04619,57.4978,76.4104,0.645966,0.659363,0.16394,0.0733197,0.00201205,0.0514284,0.935399,54.8378,74.8612,resting
-0.68432,0.711344,0.187648,0.817061,0.110944,-0.24607,1.19848,57.0337,-75.8391,0.0194079,0.0326034,0.0108241,6.51187,3.90318,4.24249,0.447499,0.440132,0.407408,0.734711,0.816406,0.20929,15.5542,10.2355,9.53857,2.13388,57.7609,76.7904,0.644196,0.641663,0.161316,0.19582,0.277988,0.0689284,0.0584624,55.9193,75.0365,resting
-0.668686,0.737405,0.158851,2.04631,3.26307,-0.59343,2.25169,56.0478,-73.9683,0.0665314,0.0473081,0.0380301,13.9497,18.1529,16.8532,1.38024,0.750577,1.58502,0.826691,0.875702,0.252899,33.9358,62.3855,48.1764,4.56007,57.2055,76.3227,0.518097,0.66568,0.0856323,0.38832,0.072012,0.471429,0.0292312,54.3701,71.4119,resting
-0.695651,0.710244,0.162966,0.41403,-0.501556,0.00688355,0.667004,56.8778,-76.9091,0.0179501,0.0346886,0.0128732,6.23142,5.40941,4.74735,0.365344,0.55307,0.337826,0.751007,0.787506,0.186279,13.1742,12.7205,10.8664,1.34464,57.8778,77.5504,0.659729,0.644318,0.14209,0.36418,0.0895121,0.313928,0.0584624,55.6855,76.1766,resting
-0.697359,0.712433,0.163352,0.521152,-0.641555,-0.300693,0.612084,57.0921,-76.4591,0.0186191,0.0418628,0.0123004,6.95806,5.67658,4.98337,0.426277,0.450261,0.312905,0.758301,0.807159,0.188904,17.9342,14.7505,11.6211,1.52002,57.8486,76.9658,0.669617,0.63205,0.138092,0.12582,0.312988,0.103928,0,56.007,75.8258,resting
-0.697201,0.706753,0.163504,0.363121,-0.530723,-0.129936,0.767983,57.2259,-76.3519,0.0197514,0.0388094,0.0120157,6.53486,5.24636,4.81259,0.469758,0.598127,0.362961,0.759125,0.803101,0.180542,14.6967,14.0855,10.7286,1.75387,58.3455,77.375,0.66153,0.636078,0.134521,0.65082,0.032988,0.0885716,0,55.6855,75.6796,resting
-0.700733,0.704907,0.161636,0.975091,-0.311707,-1.03E-05,0.322429,57.0877,-76.4556,0.020681,0.0410922,0.010757,6.9906,5.98817,5.28291,0.457653,0.655162,0.382758,0.760193,0.805115,0.188171,16.5342,13.158,12.3561,1.49079,57.9947,77.1704,0.675232,0.629517,0.129089,0.0491803,0.054512,1.38143,0,55.1008,75.6504,resting
-0.699458,0.703759,0.158617,1.02812,-0.327085,-0.0737235,0.0469471,57.1975,-76.5256,0.0172368,0.0440674,0.0125542,7.33147,5.78459,5.36444,0.367074,0.578986,0.408414,0.745544,0.800446,0.189484,16.1317,14.173,10.2036,0.818474,58.1994,77.2873,0.66806,0.625519,0.136017,0.0558197,0.124512,0.0185716,0,56.1532,75.7673,resting
-0.706987,0.70096,0.157744,0.759789,-0.941176,-0.0519802,-0.201961,57.3516,-76.5902,0.0212791,0.0442798,0.0117616,6.83745,5.99565,5.04697,0.470589,0.593023,0.387669,0.75766,0.786957,0.177155,14.3642,14.138,12.2161,1.05232,58.1409,77.4335,0.655518,0.626129,0.120636,0.54582,0.107012,0.158572,0.0292312,55.6562,75.7965,resting
-0.703759,0.702483,0.158264,0.908804,-0.68557,0.333549,-0.046947,57.0992,-76.4361,0.0199605,0.0397296,0.0119125,6.93573,6.38449,5.31966,0.504965,0.618832,0.423465,0.761902,0.798767,0.187134,17.2692,13.8405,12.3911,1.28617,58.1117,77.4043,0.671753,0.636414,0.136139,0.19582,0.120488,0.173928,0,55.247,75.5627,resting
-0.706144,0.704268,0.158436,0.673879,-0.96557,-0.254028,0.186017,57.2152,-76.6115,0.0207299,0.0458348,0.0122526,7.36489,5.67155,5.62824,0.435584,0.671007,0.366631,0.764069,0.802948,0.178558,16.2717,14.3305,12.8461,0.935399,58.4332,77.5504,0.674622,0.631958,0.12854,0.49332,0.190488,0.0164284,0,55.1593,75.9135,resting
-0.705388,0.701989,0.156279,0.865319,-0.700948,0.161201,-0.0186015,57.1621,-76.5698,0.0195042,0.0408267,0.0147049,7.13185,6.71668,5.08448,0.48981,0.521518,0.38492,0.767273,0.800079,0.196991,12.5967,17.988,14.0361,1.05232,58.0824,77.112,0.675873,0.63736,0.125549,1.35082,0.067988,0.0535716,0,56.0655,75.6212,resting
-0.704933,0.703675,0.157912,0.778879,-0.621404,0.330369,0.52439,56.9203,-76.9631,0.0242072,0.03781,0.0114833,6.59434,6.15571,5.05759,0.37627,0.518976,0.366324,0.75946,0.779297,0.182159,17.0417,13.8755,9.50357,1.25694,57.907,78.0474,0.666504,0.629089,0.132965,0.82582,0.404512,0.226428,0,55.8024,76.2643,resting
-0.705143,0.700222,0.154659,0.654258,-0.835645,0.165975,0.152357,56.9238,-76.7514,0.0205176,0.0348917,0.0147183,7.1433,6.48047,4.64194,0.33935,0.537165,0.344489,0.758789,0.752747,0.186432,15.2042,15.223,9.11643,1.02309,58.1117,77.6089,0.673004,0.633087,0.119415,0.51082,0.579512,0.156428,0,56.0947,76.0596,resting
-0.706258,0.699688,0.153915,1.62047,-0.160039,-0.106601,-0.11161,56.9167,-76.638,0.0183145,0.0382181,0.0116484,6.97044,6.12376,4.62546,0.524854,0.527526,0.431165,0.767395,0.778717,0.181396,14.3292,14.348,8.69858,1.19848,57.9363,77.7843,0.679382,0.633087,0.130493,0.61582,0.050488,0.191428,0.0292312,55.8901,75.4165,resting
-0.710329,0.69652,0.147728,0.340847,-0.409283,-0.0795553,-0.279911,57.163,-76.6593,0.0170331,0.0284791,0.00918211,5.43884,3.64844,4.07172,0.454505,0.537272,0.298633,0.754791,0.754608,0.170441,11.0283,11.1805,8.89107,1.08156,58.1117,77.2289,0.670227,0.619843,0.126892,0.43418,0.107012,0.0164284,0,56.0947,76.1473,resting
-0.724754,0.685364,0.140806,1.74615,-2.41595,-0.626828,-1.14799,57.2206,-76.9711,0.0159433,0.0216721,0.0107612,5.14854,4.06911,3.2708,0.396725,0.629172,0.588523,0.765594,0.73407,0.158508,9.28918,12.5145,8.52143,1.7831,58.4624,77.8427,0.695435,0.642395,0.11618,0.10832,0.032988,0.173928,0.263081,55.4224,75.5042,resting
-0.686263,0.702277,0.218332,-0.308238,-5.9292,1.82848,0.3118,57.1036,-77.7515,0.02405,0.0313963,0.0368979,10.3972,9.27946,5.20387,0.786949,0.588157,0.575374,0.732971,0.764618,0.295105,22.0008,26.458,9.50143,1.69541,58.1701,78.8658,0.637573,0.632629,0.144257,0.22418,1.03451,0.348928,0,55.5101,76.5273,resting
-0.66671,0.720459,0.247445,-1.0671,0.931323,1.1709,1.31363,56.6855,-76.5947,0.0178631,0.0363303,0.0108581,7.83885,4.20675,5.11638,0.488917,0.531488,0.573196,0.703796,0.804535,0.269165,15.9042,12.493,9.29143,2.22157,57.4101,78.4274,0.619263,0.636597,0.225677,0.574181,0.015488,0.176072,0.263081,55.5393,75.7089,resting
-0.658715,0.723291,0.251701,-0.243547,1.96382,0.887717,2.14894,56.5146,-74.9586,0.0162333,0.0244671,0.0117268,4.06682,2.40867,3.84708,0.423669,0.542686,0.654647,0.702393,0.773926,0.275452,10.1883,8.25799,10.9539,3.24467,57.7317,76.1473,0.62439,0.662415,0.228333,0.55668,0.194512,0.211072,1.46156,54.9547,73.7211,resting
-0.672807,0.720299,0.223387,1.39297,-0.0332986,-0.130995,1.63872,56.6421,-75.1402,0.0159855,0.0304046,0.0128873,5.11093,3.23299,4.30067,0.437016,0.489516,0.471338,0.734314,0.790009,0.251221,14.6092,8.83549,9.59107,2.57235,57.527,76.0304,0.644104,0.650116,0.184143,0.34668,0.050488,0.176072,0.643087,55.4516,74.0427,resting
-0.670618,0.722791,0.203318,0.934256,-0.0698896,0.0455964,1.68301,56.6333,-75.5716,0.0141684,0.0279922,0.0110708,5.43615,2.63613,4.14839,0.341955,0.516632,0.352876,0.710297,0.781189,0.223877,12.8417,7.59299,8.34643,2.3385,57.4686,76.3812,0.647705,0.662659,0.177948,0.20668,0.015488,0.0164283,0.906168,55.2762,74.6565,resting
-0.675373,0.724064,0.201227,0.703576,-0.428904,-0.164935,1.65023,56.5518,-75.6557,0.0133182,0.0376247,0.013839,7.05245,4.25741,4.87267,0.347071,0.60589,0.40391,0.712738,0.822906,0.231842,17.0592,10.2355,10.7636,2.57235,57.3224,76.4396,0.645966,0.664185,0.16394,0.0733197,0.00201205,0.383929,0.935399,54.8378,74.7735,resting
-0.679895,0.721201,0.190825,1.13206,-0.357843,-1.08289,1.46068,56.9398,-75.7487,0.0176773,0.034624,0.0117941,7.03734,4.1851,3.98049,0.335415,0.562388,0.429302,0.734192,0.816406,0.215668,15.5542,11.7055,10.3611,2.04619,57.6732,76.7904,0.657288,0.659363,0.168945,0.33582,0.225488,0.0514284,0.643087,55.4516,74.8904,resting
-0.676134,0.720606,0.174347,-1.71991,6.33299,4.84271,1.60772,56.5668,-75.2943,0.0599594,0.0393858,0.0316401,10.5591,15.2687,13.5119,1.24553,0.684629,1.15619,0.826691,0.838318,0.210114,33.9358,62.3855,48.1764,4.50161,57.7609,76.4104,0.518097,0.641663,0.0856323,0.19582,0.229512,0.471429,0.0292312,54.9255,72.2303,resting
-0.686027,0.726313,0.142033,4.58487,-3.79527,-4.97267,1.51294,56.1018,-74.4191,0.0408198,0.0467363,0.0311405,11.1522,8.62525,8.65366,1.23616,0.697995,1.5656,0.749237,0.875702,0.252899,30.4992,28.247,32.4461,4.56007,57.2055,76.0012,0.546051,0.653351,0.109924,0.17168,0.072012,0.576429,0.0876937,54.3701,71.4119,resting
0.517235,0.66435,-0.530092,-0.696878,-0.374662,-0.83039,-15.3225,62.0357,-75.9604,0.014103,0.0300836,0.0238263,7.18794,4.19784,4.79046,0.353091,0.467651,0.443774,0.539886,0.742554,0.577148,16.3942,8.06549,12.2314,16.0187,62.8764,76.7904,0.490509,0.618195,0.494232,1.10582,0.194512,0.0514284,14.6741,60.5963,75.2119,resting
0.514686,0.663954,-0.521946,1.07108,-0.104889,-0.279481,-15.5315,61.9073,-75.8603,0.0110875,0.0300246,0.0182311,6.12178,3.48536,4.15322,0.293353,0.535385,0.443226,0.532806,0.750427,0.55603,15.7467,7.05451,11.3214,16.0772,62.7887,76.7319,0.49118,0.587646,0.489777,0.31832,0.015488,0.00107163,14.9664,61.0348,74.9196,resting
0.472777,0.724562,-0.478721,-11.3094,-6.22299,-2.966,-17.4014,61.3342,-72.1196,0.0455866,0.0628951,0.0490216,11.0977,7.0213,6.74311,1.06435,1.00642,4.17988,0.56662,0.832245,0.539856,40.2358,21.7895,22.6111,18.8834,62.7594,76.6735,0.389526,0.64975,0.397003,0.0383197,0.212012,0.316072,15.6679,58.9594,64.9225,resting
0.361122,0.875462,-0.316435,-8.30414,-16.5273,2.74749,-12.9964,56.4969,-56.7422,0.0280715,0.0383403,0.0337274,14.5196,7.31913,5.81319,2.98055,1.25675,2.6286,0.460541,0.957184,0.406921,38.5908,31.502,13.4039,18.0064,60.1286,64.2502,0.294067,0.803284,0.262726,0.696681,2.29451,0.138928,8.76937,53.9608,53.5808,resting
0.314194,0.864707,-0.3804,4.49472,-1.43966,-2.61441,-9.86952,56.7183,-56.4836,0.0273425,0.035839,0.035917,8.4836,4.62331,6.3077,0.836462,0.815005,1.37553,0.383789,0.952026,0.433228,19.8592,15.4545,20.4761,11.254,58.1994,59.0471,0.249054,0.808655,0.275848,0.37082,0.137988,0.121428,8.21397,54.9839,53.6685,resting
0.331944,0.844218,-0.42814,33.6874,30.9582,-13.5212,-14.3454,57.3136,-63.7276,0.20929,0.107638,0.101666,53.3492,85.997,43.3731,6.87542,1.08548,10.3997,1.10294,1.0639,0.698181,148.117,334.476,149.469,30.3128,60.2163,91.406,0.0170593,0.48053,0.125549,0.93082,0.032988,0.141072,9.76323,55.3639,57.3224,resting
0.727515,0.28948,-0.52416,70.8441,48.8798,-52.2582,-11.6748,17.9187,-116.6,0.200719,0.285267,0.156768,70.9515,57.969,60.4115,9.26959,17.0505,7.33911,1.12616,0.94754,0.778229,283.339,174.018,171.501,27.8574,54.6916,121.894,0.260986,0.0150146,0.161804,2.94332,1.08299,0.473572,0.380006,1.90003,93.6861,resting
0.819173,0.374474,-0.401938,-4.61589,-1.56375,-4.5023,27.4853,-9.36462,-90.7957,0.0389184,0.0611685,0.0246471,10.1048,5.2792,14.3278,0.83083,1.81242,1.62447,0.911163,0.496643,0.469635,18.8442,11.517,30.8011,29.3189,12.5694,93.2184,0.7341,0.27002,0.361847,0.20668,0.107012,0.106072,25.9573,5.55393,87.8398,standing
0.783182,0.430071,-0.431495,0.417218,-1.1814,-2.46276,28.8548,-7.07396,-91.9162,0.0472134,0.043169,0.0175605,9.42392,5.0098,13.2958,0.489548,0.764326,0.502296,0.871277,0.524109,0.477661,18.0392,10.957,20.3186,29.7574,8.50628,93.1891,0.718842,0.35849,0.395569,0.37082,0.107012,0.788572,28.0327,5.43701,90.8506,standing
0.753227,0.462064,-0.438526,0.581608,-0.522768,-3.91737,29.7857,-5.38652,-91.7887,0.0453053,0.0393228,0.0257541,7.84901,6.68243,11.9428,0.799667,1.25467,0.577963,0.858398,0.541473,0.529358,15.7642,13.512,21.9964,31.2482,7.42473,93.1307,0.694427,0.382477,0.408386,0.17168,0.019512,0.348929,28.3543,2.60158,90.5875,standing
0.730621,0.415774,-0.457308,13.4022,-2.45625,6.02793,28.349,-7.3459,-91.965,0.164963,0.0788457,0.0519632,18.5175,27.3638,30.326,1.2693,2.01878,1.3958,1.00043,0.552948,0.623749,57.0642,91.733,76.684,31.1897,10.7279,93.7445,0.24231,0.22348,0.366913,0.17832,0.072012,2.29357,25.8989,2.98158,88.0152,standing
0.512032,0.581893,-0.578505,29.7032,23.2242,-10.5303,-13.8565,58.272,-82.719,0.215603,0.145149,0.0841311,69.8978,95.6949,37.1934,2.45022,3.99851,12.2619,1.30359,0.900208,0.657043,184.919,293.963,95.0786,17.5387,61.3563,107.542,0.185394,0.268951,0.233551,2.37668,0.890488,3.23857,9.6463,47.4423,71.0903,standing
0.758647,0.372568,-0.511842,0.878053,2.56095,-0.968353,-13.5385,45.7584,-109.749,0.0454025,0.0313476,0.0340897,12.8049,8.62423,9.13333,0.782682,0.787579,0.646679,0.88031,0.448029,0.58786,28.0142,21.068,15.7489,15.4925,47.413,111.108,0.688782,0.32132,0.440033,0.0208197,0.579512,0.716429,12.4817,43.9345,108.36,standing
0.757374,0.379694,-0.514126,6.95692,0.198445,-1.1651,-13.7644,45.1029,-110.106,0.0445548,0.0354992,0.0222978,10.4426,5.91224,10.7891,0.719081,1.37623,1.22261,0.857727,0.450714,0.557373,27.6117,11.8495,25.0786,15.1418,47.3253,112.452,0.676849,0.314758,0.465637,0.43418,0.702012,0.226428,12.1894,42.2391,108.243,standing
0.762919,0.335879,-0.531981,-3.21748,-0.0386005,3.01847,-12.8263,42.9796,-112.009,0.0371455,0.0278163,0.0190488,9.5225,5.7035,6.92815,0.833482,0.900495,0.678159,0.830811,0.385406,0.571014,26.7433,13.2495,15.3814,14.4987,44.7238,113.125,0.681152,0.276886,0.497253,0.11918,0.190488,0.281072,11.4879,41.4499,110.757,standing
0.78756,0.345891,-0.485352,3.931,0.675188,-2.27501,-11.7518,44.2268,-111.147,0.029642,0.0209113,0.0171957,9.32338,4.61429,5.10788,0.431382,1.49239,0.965271,0.84433,0.388855,0.510559,21.8192,11.6355,12.7061,12.8617,46.2146,112.745,0.730042,0.299194,0.45105,0.87832,0.557988,0.333572,10.7863,41.4499,109.617,standing
0.790022,0.311073,-0.506412,1.26888,-0.327087,1.62325,-11.3001,42.2125,-112.647,0.0188185,0.0144208,0.00930607,4.65746,2.50405,3.24763,0.548418,0.456235,0.30714,0.824615,0.347443,0.527039,13.5767,5.77701,9.29143,12.6571,43.0284,113.183,0.74115,0.290466,0.482941,0.0208197,0.00201202,0.0164284,10.1432,41.3037,112.043,standing
0.75947,0.353658,-0.504979,15.4821,-0.300038,-18.7043,-13.0097,39.8616,-113.665,0.0969052,0.0592807,0.0162457,22.7531,17.1185,26.6293,2.18821,3.08813,1.42575,0.863892,0.504517,0.548859,81.1792,61.0905,88.2186,18.7957,42.7653,117.89,0.495026,0.293213,0.458832,0.22418,0.067988,0.263572,10.7863,29.7281,112.043,standing
0.540537,0.735342,-0.394121,6.09358,0.103519,1.28226,21.9509,41.0601,-55.8945,0.017606,0.0268928,0.0311656,4.61485,2.13563,2.35244,0.279355,0.964688,0.694921,0.578278,0.774994,0.43396,13.1742,5.70701,6.75393,22.5373,42.6483,56.884,0.512909,0.690674,0.338165,0.14332,0.00201202,0.0689284,21.368,38.9944,54.5162,standing
0.550074,0.718972,-0.412351,-1.13234,-0.726935,-0.356905,22.0979,41.3338,-56.2169,0.00644728,0.00976085,0.0118027,1.67191,1.36424,0.971551,0.286265,0.583449,0.4251,0.562744,0.737213,0.433258,4.36082,3.15201,2.80107,22.5957,42.2683,56.9132,0.539825,0.703705,0.395203,0.0666802,0.032988,0.0339284,21.5434,40.1637,55.247,standing
0.533399,0.740341,-0.401665,5.0579,0.638065,-2.1016,21.7799,41.511,-55.9822,0.0130889,0.00805791,0.0170097,5.86989,3.55096,3.32237,0.604279,0.992303,0.404027,0.550262,0.759399,0.444855,21.0142,12.808,17.0111,23.0342,44.373,57.1763,0.503296,0.714996,0.381165,0.31832,0.050488,0.0864284,20.1988,40.0468,55.247,standing
0.447085,0.735255,-0.494639,-4.38785,-6.38579,-9.01093,18.8603,46.7549,-58.8779,0.146579,0.0982438,0.0798745,22.6432,21.4492,23.4738,1.57796,1.54031,1.32982,0.876434,0.981415,0.701233,72.2084,62.2845,81.7261,21.0172,49.6931,61.6779,0.187592,0.460205,0.332764,1.45582,0.0895121,0.281072,15.551,43.7884,56.9132,standing
0.334499,0.853371,-0.389045,1.4773,0.836406,1.93823,19.2155,45.3066,-57.6723,0.0532058,0.0241753,0.0232771,16.0969,20.8502,11.0952,1.93366,1.87343,0.562337,0.506134,0.902863,0.431305,42.0142,55.7005,23.4139,22.8004,48.3484,58.8132,0.252899,0.798645,0.340057,0.96582,0.242988,0.418929,15.6387,41.6837,56.7963,standing
0.382646,0.802172,-0.448744,-5.09475,-7.67496,7.52551,18.1482,46.6096,-58.0904,0.0320891,0.0177965,0.0321513,12.2366,11.2875,7.18738,2.8252,2.73545,0.646156,0.437469,0.832031,0.512115,25.7108,33.1295,16.4839,23.7065,50.0438,59.5148,0.26944,0.763397,0.389984,0.801681,0.067988,0.158572,14.3525,41.1283,56.6793,standing
0.42526,0.809727,-0.397197,-0.668311,-0.393901,-0.926988,22.1457,42.5438,-57.6528,0.0271812,0.0200408,0.0295455,11.0278,10.2156,9.91534,1.39032,1.4439,0.540407,0.482452,0.859467,0.446014,24.2583,21.107,22.8714,23.9696,45.1038,58.5794,0.329224,0.771484,0.341431,0.0558196,0.562012,0.0535717,19.848,40.6022,56.2993,standing
0.826313,-0.0482196,-0.526148,78.2472,-6.27494,-65.3641,36.9173,41.6067,-71.3472,0.239372,0.267406,0.151798,94.1937,50.2659,57.924,11.6525,23.1015,12.3632,1.3237,0.88147,0.822052,347.792,137.272,167.179,47.7053,71.2365,88.0152,0.294983,0.00671387,0.084259,5.29918,0.697988,2.88643,13.6217,1.98772,55.4516,walking
0.766862,0.247829,-0.568732,38.9496,3.22597,-66.6284,-18.5742,58.2826,-111.978,0.206465,0.234445,0.145928,64.8093,40.672,56.112,14.1099,9.19374,9.05751,1.1485,0.744812,0.860596,173.807,116.706,227.851,35.6329,70.7103,122.596,0.329315,0.0171204,0.228088,2.53418,0.732988,0.788572,2.07542,43.0576,84.4782,walking
0.49963,0.474844,-0.689047,0.0136709,-11.6745,18.5457,-35.8596,54.1566,-108.232,0.226456,0.236631,0.160463,69.4337,50.6779,36.7283,2.22572,3.64673,6.47312,0.919891,1.22369,1.03769,135.377,160.911,116.601,38.7606,61.4733,116.574,0.0866089,0.0879517,0.391693,3.07668,1.92299,0.873928,30.9559,46.8284,95.2645,walking
0.579299,0.383365,-0.682902,-23.9348,-20.9469,8.83534,-27.4525,52.9351,-109.398,0.246674,0.24497,0.178256,69.5576,65.3068,38.3333,3.06106,7.12602,9.16719,1.06421,0.886536,1.02924,144.617,146.088,102.986,31.3943,62.9933,122.362,0.0568237,0.0629883,0.179901,5.48082,1.62951,1.15393,21.0465,40.076,92.8091,walking
0.359564,0.492425,-0.75727,-41.1882,-73.0921,90.8239,4.50427,59.6884,-78.9269,0.199706,0.228614,0.178572,48.6685,62.1025,51.2895,24.4932,10.4717,6.43211,0.710968,0.999542,1.24344,125.741,216.425,226.046,40.456,70.0088,90.7629,0.0123901,0.00100708,0.445068,0.28332,4.84951,15.5739,0.496931,36.159,65.9749,walking
0.324108,0.580594,-0.697127,-27.1866,-10.6399,33.7559,44.2357,19.3077,-84.6217,0.182725,0.18341,0.201749,57.4929,44.4566,24.7016,1.52287,8.95153,2.14264,0.710907,1.16309,1.237,140.493,90.2495,90.929,46.1853,35.8375,88.4829,0.0725403,0.220886,0.321075,4.79168,3.20049,1.78393,40.7775,4.85238,80.6489,walking
0.715669,0.448958,-0.500419,-8.50883,7.69424,17.4417,35.461,-9.80663,-92.1784,0.275321,0.175361,0.15932,56.6674,57.3756,52.8989,4.86695,5.28757,5.79521,1.23697,0.869232,0.781891,185.532,126.3,128.974,43.5545,17.9772,100.877,0.0491028,0.0505981,0.143188,2.38332,0.754512,2.62393,28.0327,1.05232,83.8351,walking
0.643175,0.649669,-0.390448,2.5029,-0.312236,-3.21047,5.8737,53.2123,-57.5394,0.0449683,0.03575,0.0246985,12.3317,8.29647,5.87964,0.536924,0.801572,0.625452,0.759552,0.698608,0.439331,27.2617,19.178,13.7561,6.81087,54.9547,58.6086,0.568268,0.558563,0.346069,1.64168,0.382988,0.156428,4.94008,51.0669,55.7147,standing
0.622768,0.65736,-0.415883,3.54229,0.812005,0.891429,4.75937,54.4834,-58.6777,0.0269431,0.0266463,0.0180296,9.7591,4.78282,3.73096,0.381566,0.445397,0.566802,0.710083,0.700989,0.448059,23.1492,14.418,10.5339,5.75855,55.3639,59.7486,0.58783,0.57309,0.373505,0.27668,0.067988,0.0339284,4.09237,53.5224,57.7317,standing
0.632317,0.638083,-0.422973,1.13578,-0.578979,0.208399,4.8453,55.0911,-59.6184,0.0325245,0.0288894,0.0199098,10.6248,6.50194,5.00626,0.361323,0.426566,0.58281,0.726135,0.700562,0.462585,25.1967,20.442,10.3239,5.64163,56.007,60.6255,0.57196,0.577484,0.357513,0.82582,0.387012,0.103928,4.15083,54.1947,58.4332,standing
0.633157,0.652165,-0.397511,-9.41249,-8.83314,2.35399,7.12267,52.7358,-57.8318,0.0943083,0.104833,0.105597,39.8945,30.025,18.3164,1.66713,2.35209,2.28321,0.851135,0.821259,0.740448,136.976,94.6945,69.0911,9.93861,55.9193,60.2455,0.390991,0.319275,0.190308,0.13668,1.36299,0.436428,4.85238,47.9392,53.727,standing
0.579477,0.702892,-0.392487,-1.94793,-3.23049,-2.28615,9.25832,50.0846,-55.3701,0.0546318,0.046501,0.044525,16.1513,13.1892,6.79965,0.725755,1.18199,0.903292,0.73349,0.796539,0.482361,42.3183,29.017,18.2186,10.6109,51.71,57.0886,0.48703,0.596313,0.313965,0.87832,0.487988,0.401428,7.95089,46.0976,53.727,standing
0.534682,0.728122,-0.40034,-29.1413,-44.9728,31.6346,12.2328,46.1118,-55.7944,0.151762,0.168375,0.124225,72.438,104.304,64.1341,7.78575,7.42213,3.74502,0.846191,1.18002,0.927185,286.373,347.92,206.149,34.7267,50.3362,68.0503,0.0545959,0.102417,0.254456,0.28332,0.067988,0.768929,7.92166,20.1111,53.4639,standing
0.886883,0.109489,-0.384114,3.05125,0.958393,7.48309,30.575,-10.9617,-63.7932,0.244458,0.268863,0.19566,81.9713,57.6666,47.5923,3.24798,4.86842,3.3171,1.52133,0.709595,0.757294,177.569,153.946,118.929,35.0775,19.0588,70.2426,0.495178,0.0195618,0.0351563,9.48168,2.90701,1.05107,24.1742,2.60158,57.6147,running
0.598508,0.437881,-0.602475,-93.8166,-133.518,90.7677,-3.02498,49.585,-90.4661,0.419603,0.327316,0.249029,83.3947,121.343,63.3199,15.6818,15.1348,21.8156,1.53931,1.14417,1.05682,268.086,438.15,262.622,23.6773,65.1856,122.8,0.0454712,0.00726318,0.029541,1.71832,7.06799,21.1214,0.876937,19.4095,67.0856,running
0.622594,0.282431,-0.690374,-37.8601,-20.6738,59.8166,28.6306,36.4885,-69.9875,0.264581,0.20358,0.164211,74.9671,57.6412,45.3089,11.0423,16.0395,1.32286,1.33936,0.753571,1.12109,180.551,152.462,134.451,38.936,60.8302,71.9088,0.175232,0.00863647,0.439697,5.85918,0.032988,0.946072,7.83397,16.2526,67.1441,walking
0.654893,0.276735,-0.660519,-25.7898,-6.98664,33.7734,35.5461,-0.946027,-78.9615,0.196659,0.188887,0.205416,55.7683,37.6884,47.6979,2.37048,8.25429,4.7195,1.1012,0.681641,1.10663,135.254,111.46,143.306,38.7314,15.931,84.8582,0.203766,0.00448608,0.331299,0.0841802,1.34549,0.786429,30.3128,0.0584624,68.5764,walking
0.760374,0.266812,-0.552778,23.8768,4.47004,-20.8516,37.0315,-2.92135,-74.847,0.193966,0.210247,0.201974,57.2092,34.2659,64.0522,2.80418,5.71953,3.4793,1.40295,0.774902,0.960571,154.609,80.2705,145.024,41.7714,11.8386,80.2105,0.452911,0.00158691,0.211121,0.0733193,3.97451,6.89607,31.5989,0,69.6288,walking
0.642529,0.168664,-0.734697,14.3435,-5.49808,-17.0535,45.2756,17.0028,-65.415,0.194389,0.237562,0.193373,52.6865,38.2277,50.4059,2.28429,3.97638,1.7712,0.962402,0.692383,1.08691,135.954,101.94,108.151,49.81,22.3034,70.038,0.226959,0.00231934,0.37323,1.55418,0.229512,3.62357,41.0991,4.99854,62.9933,walking
0.535882,-0.0246869,-0.774082,-29.3201,-0.126638,58.8662,42.6953,-6.36975,-72.2197,0.233129,0.206229,0.191208,54.5252,57.1885,56.7942,6.59578,18.1648,7.83935,0.944824,0.611145,1.21872,138.061,107.028,180.721,49.7808,30.5174,91.1722,0.0222778,0.00137329,0.428192,1.76418,2.29451,2.93893,24.6127,1.54925,63.5779,walking
0.45008,0.386128,-0.763712,31.9395,27.3526,-22.312,-33.7807,41.0699,-107.574,0.230153,0.282449,0.147877,77.4708,55.7601,40.3141,3.32424,9.91314,11.0682,0.898132,1.26236,1.10699,203.242,187.843,103.724,39.5791,56.9716,117.129,0.0289917,0.0196228,0.372253,0.906681,0.120488,0.681429,30.5174,28.062,83.2505,walking
0.615561,0.292834,-0.687373,20.2378,16.0689,-11.6094,-20.6062,19.165,-118.74,0.221981,0.226803,0.157037,70.9708,55.046,56.5034,7.82324,10.993,3.41528,1.11514,0.879669,0.995514,184.219,149.046,124.321,33.2359,37.8544,121.66,0.0516052,0.00100708,0.321503,1.26332,0.789512,2.50357,12.6863,6.40164,112.452,walking
0.775273,0.499489,-0.356277,1.44494,-0.162162,-0.548345,28.2604,-3.44308,-98.5287,0.0304941,0.0370976,0.020014,8.81282,4.43682,5.67284,0.295894,0.519114,0.574557,0.853912,0.58609,0.404327,20.7933,10.883,10.5536,29.0558,4.88161,99.4446,0.725677,0.397552,0.320648,0.27668,0.334512,0.648572,27.7697,2.51388,97.4861,standing
0.806242,0.489436,-0.313005,26.3766,22.0538,-7.84373,29.1533,-4.78683,-93.9925,0.0701523,0.0389152,0.0912661,41.5779,32.1818,17.9497,1.84592,1.06781,6.75192,1.00528,0.562592,0.402435,148.274,86.7455,58.2586,34.259,7.3955,98.4215,0.697205,0.388184,0.0830688,1.19332,0.172988,0.401429,27.6235,2.66004,73.5457,standing
0.885533,0.321944,-0.245592,110.248,37.5461,-42.016,16.9373,39.6978,-62.065,0.210149,0.159234,0.170235,53.6309,55.5295,48.8227,12.9685,21.9924,12.0284,1.32092,0.61322,0.597534,232.607,176.293,148.559,34.4344,64.3087,83.192,0.535919,0.0116577,0.00650024,1.26332,0.592988,2.88643,0.438468,0.350775,46.8284,standing
0.841824,0.278692,-0.438843,-19.9464,-0.162684,14.8145,-3.43777,20.624,-119.487,0.175265,0.168366,0.181169,49.3378,35.6783,55.3462,2.7985,7.72132,0.610528,1.33276,0.672638,0.779205,93.8842,88.4295,143.324,8.91552,29.8451,120.9,0.564545,0.0039978,0.128601,0.836681,3.71201,1.64607,0.438468,7.04472,118.094,walking
0.8048,0.30157,-0.481301,-25.1577,-7.94862,-0.761013,2.09225,63.0579,-78.6701,0.201451,0.243729,0.222384,52.9563,56.4561,50.004,2.97107,1.9485,9.47503,1.27039,0.693756,0.912476,128.856,136.152,131.161,8.44782,65.4195,95.0307,0.49234,0.0661926,0.0679321,0.12582,1.22299,0.701072,0.292312,58.4332,67.9041,walking
0.737996,0.451932,-0.507847,-22.0241,-23.9797,16.2665,-2.00721,62.6708,-70.7466,0.244383,0.177695,0.194936,49.1669,65.6399,67.8851,5.73942,2.37333,2.69246,1.16449,0.860413,0.841614,144.203,185.73,149.134,15.8141,64.601,74.5104,0.294403,0.01651,0.052063,2.90168,0.509512,6.03857,0.935399,54.7208,64.6595,walking
0.832496,0.513729,-0.122644,33.2425,30.2863,-21.6253,19.639,25.9874,-46.5618,0.175926,0.136778,0.127076,36.6665,61.8956,39.4174,7.29759,11.3833,6.51931,1.31866,0.674072,0.4487,150.077,256.198,117.566,33.7913,37.9421,64.1041,0.507111,0.162598,0.0249939,0.57418,0.352012,0.263572,12.394,4.79392,41.8591,standing
0.741138,0.659508,-0.114168,6.4526,2.52276,-3.2704,10.7819,40.5393,-43.6077,0.0264949,0.0199487,0.0140188,5.2435,3.48965,8.11137,1.24066,1.77922,0.523968,0.79306,0.694885,0.141907,14.9242,7.73299,19.4961,13.271,43.3791,44.8115,0.68692,0.618469,0.071228,0.29418,0.277988,0.281072,8.59398,36.8898,42.736,standing
0.782932,0.494941,-0.235745,-67.4536,-45.6882,46.5908,17.0037,24.1414,-55.3763,0.217959,0.220268,0.144672,71.733,82.1719,73.1715,9.23587,23.8992,15.5875,1.41861,0.698029,0.568451,246.193,278.69,198.536,34.3467,43.8468,89.7106,0.395325,0.0693665,0.0494385,0.0733197,0.137988,1.27857,8.30167,0.292312,42.8237,standing
0.591272,0.617637,-0.501982,0.370013,0.413747,-1.88365,-3.32439,60.661,-66.2149,0.00936344,0.007799,0.00750034,3.25408,1.74143,3.21277,0.515486,0.567347,0.432363,0.606934,0.628479,0.522369,7.44082,3.18701,11.9886,4.32622,61.6194,67.4949,0.573181,0.588928,0.487671,0.0383196,0.120488,0.103928,2.10465,59.2225,65.5656,standing
0.574593,0.63361,-0.503466,-0.127408,-1.11459,-0.419483,-4.43074,61.025,-65.9545,0.0206995,0.0207717,0.0238765,7.63991,6.03997,5.86119,0.717534,0.500576,0.896546,0.644531,0.674011,0.550446,13.2617,12.567,13.6861,6.16779,61.8825,67.4657,0.527283,0.589294,0.440918,2.00918,0.155488,0.193572,3.09851,59.924,64.4841,standing
0.579831,0.639246,-0.496212,-0.755818,-0.693524,0.9715,-3.16406,60.397,-64.5638,0.0266771,0.0256224,0.0257673,6.91958,8.75053,6.55433,0.71551,0.744708,0.562617,0.62674,0.705902,0.567932,18.2558,34.442,15.0161,4.56007,61.6194,65.5072,0.499542,0.558136,0.449677,0.51082,0.102988,0.263572,2.07542,58.6086,63.4025,standing
0.598304,0.632004,-0.474165,0.629867,0.159204,2.47968,-3.07814,60.2252,-64.4159,0.0274373,0.0226813,0.0257342,8.00192,6.72282,5.07841,0.625222,0.541363,0.67271,0.654022,0.67218,0.537689,16.4117,18.688,11.2339,4.38468,61.2102,66.0918,0.553955,0.572021,0.410522,0.41668,0.015488,0.0339284,1.84157,58.9594,63.2856,standing
0.614085,0.617357,-0.471824,0.555096,-1.62315,-1.2388,-2.09933,59.8797,-64.5514,0.0269711,0.0255229,0.0286093,8.96163,5.4555,4.84392,0.476608,0.462861,0.616797,0.680176,0.670929,0.549347,19.8067,13.4205,9.29143,3.06928,60.7425,65.741,0.553619,0.546539,0.410767,0.54582,0.505488,0.243928,0.73078,58.9301,63.1979,standing
0.592059,0.634557,-0.487374,2.0426,-0.984129,0.0254351,-3.75754,60.7744,-65.392,0.0395233,0.0303963,0.0460363,13.1097,8.92457,8.60574,0.804405,0.425335,0.590924,0.698578,0.68866,0.584778,26.0017,19.0945,17.7964,5.40778,61.4733,66.3256,0.50827,0.56897,0.401764,0.46918,0.247012,0.488929,2.39696,59.6609,64.1333,standing
0.599127,0.629064,-0.487342,-0.644447,-0.38966,-1.02349,-3.07902,60.2145,-65.1024,0.0292946,0.0311741,0.0328107,11.2384,7.49263,5.0721,0.392552,0.790275,0.578662,0.65451,0.680084,0.579651,25.8792,18.268,9.97607,4.06314,61.6194,66.3256,0.538757,0.558716,0.428894,0.58082,0.072012,0.0360716,2.30927,57.7024,64.221,standing
0.603821,0.616095,-0.48141,2.94624,-0.336629,0.917942,-2.42619,60.343,-65.3867,0.0299478,0.0326239,0.0378468,12.115,8.14077,5.61994,0.580045,0.645286,0.562029,0.691711,0.687683,0.56134,21.6792,15.888,10.5514,4.09237,61.2686,66.3841,0.544495,0.54953,0.428131,0.889181,0.120488,0.0535717,1.46156,58.2286,64.1333,standing
0.766508,0.553588,-0.306651,0.389107,-0.750268,1.30558,8.82606,50.0952,-54.2168,0.0338251,0.0223166,0.0164259,6.63317,2.78062,10.5187,0.487379,0.552378,0.460331,0.833496,0.601501,0.339691,12.1417,5.25201,22.9414,9.79246,50.8916,55.1593,0.705292,0.509735,0.27298,1.08168,0.505488,2.20607,7.83397,48.9331,53.1131,standing
0.772226,0.550296,-0.305701,0.484562,-1.15277,1.00649,9.50369,49.4264,-54.0831,0.03536,0.0310422,0.0141716,7.86367,3.09699,10.6666,0.490229,0.562174,0.334718,0.831268,0.621887,0.335114,19.4042,8.08702,23.8514,10.4648,50.3946,55.0716,0.688507,0.494049,0.276428,0.0666803,0.015488,0.576428,8.7109,48.4069,53.3762,standing
0.77014,0.545874,-0.309085,1.47888,0.455641,-0.815632,9.47711,49.7489,-54.5277,0.0445225,0.0291144,0.0214018,9.01934,3.58899,13.5296,0.440835,0.596691,0.454448,0.87149,0.612762,0.351654,16.6808,7.56201,24.2386,10.4648,50.6869,55.2762,0.700195,0.504425,0.265594,1.44918,0.085488,0.946072,8.7109,48.4654,53.3762,standing
0.780041,0.536513,-0.314307,-0.370282,-0.574738,-0.605636,9.42485,50.0368,-54.9653,0.0560842,0.0348069,0.0240231,9.70825,4.44575,14.9426,0.486693,0.856745,0.332337,0.898926,0.634705,0.371857,18.4483,9.44799,24.0964,10.2894,51.1254,55.7147,0.659698,0.474182,0.261932,0.27668,0.032988,0.00107162,8.38936,47.91,54.3408,standing
0.765925,0.548232,-0.318551,-3.18725,-4.64587,1.38141,9.79245,49.3636,-54.3621,0.0465708,0.03466,0.020767,10.2245,3.84439,12.8082,0.750096,0.73912,0.591724,0.894165,0.620239,0.376068,27.4958,13.652,24.1161,11.4586,50.6869,55.4516,0.68927,0.474884,0.283051,0.27668,0.072012,0.803929,8.50628,47.6177,53.0547,standing
0.772217,0.530528,-0.323421,-1.49135,-3.26549,6.91885,14.6829,44.877,-52.9457,0.032552,0.0434275,0.0154832,7.98843,5.52339,8.41023,1.91682,1.67925,0.338786,0.829407,0.604797,0.355804,23.6458,16.627,25.1814,17.7726,48.173,53.727,0.710815,0.439087,0.29425,0.0141803,0.050488,0.856429,11.8679,41.8883,52.3239,standing
0.830827,0.40634,-0.351814,12.1221,1.78511,5.54855,17.3146,44.4633,-54.9166,0.0289295,0.0605653,0.0223993,18.7113,7.04747,8.32521,0.83394,0.984192,1.61219,0.878052,0.47934,0.409821,80.9517,27.3155,31.5864,18.8541,46.1269,58.3163,0.735016,0.258118,0.282349,0.42332,0.155488,0.173928,15.7849,42.356,53.0839,standing
0.883969,0.23853,-0.377455,-0.411118,0.725566,0.993248,18.4219,45.9426,-58.4128,0.0203838,0.0201915,0.0189746,10.2841,4.83408,3.90438,0.36994,0.857878,0.824122,0.934692,0.268158,0.413086,24.5842,12.3745,7.78643,19.2341,47.3838,59.6609,0.851349,0.201965,0.348633,0.73832,0.0720121,0.00107162,17.7433,43.2622,57.0009,standing
0.897642,0.2317,-0.353923,-3.93392,-0.0401922,0.798624,19.3387,43.3658,-56.131,0.0245684,0.0285573,0.0151744,8.45473,4.27584,7.75403,0.529307,1.0056,0.747791,0.95163,0.301727,0.383179,28.8258,10.047,21.5261,20.1695,45.3376,57.3809,0.847687,0.185974,0.30127,0.30082,0.015488,0.123572,18.0357,41.4206,54.4578,standing
0.890704,0.249382,-0.271163,-15.0777,-3.69504,19.8577,21.6293,30.1728,-51.9093,0.23299,0.123834,0.182893,59.2166,68.0357,52.8808,3.66859,12.0954,3.41387,1.56787,0.664063,0.503113,167.391,241.901,169.434,29.9328,42.736,56.7963,0.468445,0.00198364,0.00616455,0.0666803,0.750488,0.138928,17.7726,12.131,46.3899,standing
0.904805,-0.0435664,-0.258385,-41.0116,8.22247,49.4003,20.1731,3.7726,-52.4027,0.243836,0.42699,0.19653,115.511,77.8154,64.2022,7.65339,14.1895,9.43692,1.41605,1.2616,0.64151,403.868,201.34,204.626,27.4189,26.3958,80.5028,0.450256,0.0171814,0.0241089,0.714181,1.06951,4.93607,2.7185,0.584624,42.473,walking
0.812179,-0.196136,-0.38936,1.54038,7.31091,11.0891,4.2527,-23.6162,-90.4113,0.275417,0.33732,0.21614,81.0881,69.9353,67.5105,2.94027,1.82206,4.44947,1.35931,0.998627,0.920776,171.094,171.971,150.236,7.92166,28.4127,98.3046,0.281738,0.0105591,0.0343018,4.11582,1.36701,5.84607,0.0876937,20.5788,80.5028,walking
0.79632,0.424387,-0.419284,-1.59422,-1.86656,-2.17904,1.47839,62.879,-69.2275,0.0596452,0.0463554,0.0236074,10.7989,5.95345,13.3779,0.63077,0.534969,0.833649,0.936951,0.497314,0.464325,20.6008,17.467,25.0436,2.7185,63.6364,71.0903,0.675842,0.345581,0.387726,1.18668,0.172988,0.103928,0.0876937,61.064,67.7287,walking
0.810078,0.412748,-0.394046,0.190783,-0.592233,0.0869375,1.54217,62.7993,-69.8104,0.0749917,0.0605054,0.0440311,25.1694,20.0094,16.1749,0.883351,0.81119,1.95323,0.963013,0.508087,0.477905,62.8042,63.733,30.6414,3.24467,64.1625,73.7211,0.67688,0.296967,0.283966,1.01168,0.995488,0.103928,0.23385,61.0056,66.9395,walking
0.789205,0.466453,-0.380084,-0.438162,0.633824,0.835205,0.686491,62.1606,-66.5551,0.0587738,0.0435792,0.0241549,9.69413,5.57729,10.5208,0.493932,0.567641,0.617166,0.955322,0.56781,0.433258,18.6692,12.283,18.3214,1.7831,63.1394,68.0795,0.667786,0.379547,0.337921,0.50418,0.697988,0.103928,0,60.4794,65.4487,walking
0.76355,0.499422,-0.382921,-4.43876,-4.11345,-3.77313,0.651945,61.8409,-64.8038,0.0523358,0.0514621,0.0271942,13.1556,8.68091,15.2254,1.62422,0.744632,1.04253,0.911469,0.599854,0.428162,25.5883,28.8945,27.2136,3.33236,62.8764,66.6764,0.649902,0.395874,0.328369,0.0908197,0.505488,1.48857,0.146156,59.9532,61.9702,walking
0.744437,0.541692,-0.381894,0.591693,-1.78595,3.08793,0.502246,61.4378,-62.5318,0.0641703,0.0470763,0.0384885,13.4912,4.54766,15.0306,0.834466,0.579188,0.630721,0.895752,0.636169,0.473297,26.0542,14.3305,28.2264,1.7831,62.4963,63.4902,0.616577,0.449799,0.309113,1.60668,0.124512,0.873929,0,60.0409,61.3856,walking
0.740641,0.526006,-0.388167,-0.0409582,-0.066707,-1.312,1.24897,60.979,-62.5362,0.0624816,0.0489385,0.0403214,13.7157,3.84241,17.4527,1.54264,0.498272,1.00449,0.904938,0.611511,0.489197,28.0558,12.917,34.8064,3.24467,61.6486,64.221,0.61377,0.408478,0.311005,1.86918,0.120488,0.0339284,0.321543,59.8363,60.4794,walking
0.728022,0.566468,-0.374288,0.722145,-0.161631,-0.476235,-1.45182,61.3625,-61.9702,0.0425906,0.0383496,0.026497,12.25,5.28181,12.7617,0.869692,0.571892,0.750035,0.82605,0.630493,0.422974,24.1358,10.2745,25.8814,3.44928,62.0871,63.0517,0.652283,0.491455,0.321167,1.25668,0.072012,0.0164284,0.0584624,59.7194,60.4794,walking
0.716814,0.580234,-0.36398,-0.667252,-0.879132,-0.494263,-1.68124,61.258,-61.4485,0.03769,0.0387877,0.0253372,10.6682,4.05891,10.014,0.54564,0.566395,0.752519,0.795685,0.655304,0.423981,26.6142,11.1805,19.6864,2.8062,62.4087,62.8179,0.625061,0.509338,0.309753,0.0383197,0.00201201,0.558928,0.496931,60.0117,59.7486,walking
0.732306,0.546965,-0.382174,-36.2177,-30.9001,32.7621,7.77816,53.2637,-57.1497,0.04809,0.0618424,0.0546805,36.5765,42.6127,35.8634,10.5206,10.243,3.20703,0.813416,0.68338,0.569275,105.353,132.53,108.114,30.5466,61.5902,61.6486,0.626007,0.383057,0.314484,2.26082,0.212012,0.593928,0.0292312,27.0681,51.3593,walking
0.765818,0.594616,-0.208539,12.0489,18.1381,-12.4484,-5.67706,59.4749,-64.3813,0.0489035,0.0620372,0.0564095,10.4679,12.4447,11.6695,4.83418,1.39901,2.46875,0.866821,0.707153,0.332367,32.0567,51.1505,34.7036,13.5048,61.5609,68.7811,0.672699,0.464294,0.129395,0.68582,0.947012,0.368572,0.175387,56.0947,60.9179,standing
0.648102,0.745033,-0.126866,2.04684,3.40731,-4.74782,-17.8532,60.0684,-68.6624,0.0285965,0.0277246,0.0158129,5.78775,5.22545,9.18387,1.35222,0.636042,0.551287,0.734039,0.824341,0.163513,13.3317,12.9305,30.7311,19.1757,61.2979,69.7749,0.590729,0.661591,0.0913391,0.17832,0.212012,0.366428,13.9433,58.6671,67.4949,standing
0.699332,0.681083,-0.191591,-15.5926,-27.6987,12.391,-6.0048,56.2099,-58.6794,0.0588091,0.0532035,0.0494554,22.6976,36.9392,19.1798,7.07884,2.42423,5.38075,0.817139,0.781372,0.264099,61.6733,141.472,55.1064,18.8541,60.8594,69.6872,0.548431,0.60141,0.0569153,0.16082,0.155488,0.858572,0.0876937,53.2593,53.9608,standing
0.715266,0.639787,-0.256225,-1.38953,-3.7889,4.50172,1.89029,53.5941,-54.4569,0.0380323,0.0362084,0.0182882,9.17067,4.04601,12.0361,1.44023,0.834764,0.537473,0.791473,0.70929,0.298798,20.6883,14.2995,28.7514,4.5893,54.867,55.6562,0.642456,0.562988,0.221741,0.42332,1.18799,0.0864284,0.0584624,51.1839,53.5516,standing
0.741208,0.617322,-0.267022,-3.34209,-4.85216,-3.10336,3.48914,52.8456,-54.0521,0.0480026,0.0389376,0.0405476,19.3402,20.4525,14.512,1.24694,0.994285,0.831082,0.834167,0.693512,0.368683,56.2658,70.4745,36.1561,5.057,55.0424,55.8024,0.662201,0.544373,0.174438,0.26582,0.492012,0.103928,0.760012,51.1254,51.9146,standing
0.749207,0.578267,-0.241523,-12.9475,-11.964,14.841,14.1461,41.7076,-49.3556,0.129601,0.0822272,0.11296,24.3981,26.6205,23.9701,4.40959,5.23644,1.50005,1.00937,0.736908,0.450867,70.8783,88.027,74.549,19.2926,50.95,52.3823,0.492706,0.417572,0.00820923,0.44082,1.48549,1.31357,5.11546,35.2528,46.273,standing
0.74086,0.594077,-0.281675,1.58972,-0.553017,-3.74661,23.3327,32.7221,-51.7942,0.107584,0.0705668,0.0339383,40.8391,46.0186,17.0163,3.51542,3.4479,2.18494,1.10242,0.704498,0.360352,96.4109,135.295,45.3064,27.9158,38.7606,55.247,0.524139,0.404633,0.216217,0.854181,0.247012,0.508572,17.451,28.4712,48.2023,standing
0.754571,0.579409,-0.273439,-20.2874,-28.8712,4.99225,20.0181,36.5009,-51.2831,0.117314,0.0821503,0.0553264,41.8866,51.2369,15.0546,5.80687,5.49435,4.38451,1.1369,0.749512,0.415131,168.091,199.66,33.2139,32.1836,41.0991,62.0286,0.538452,0.380463,0.188934,0.59832,0.260488,2.67857,15.5802,23.8234,47.8223,standing
0.877725,0.0410341,-0.449956,7.14996,-2.95155,2.05698,21.43,-16.1383,-75.227,0.210136,0.171814,0.130864,44.9872,37.631,56.7837,1.77634,1.77754,1.96528,1.26395,0.443176,0.672211,104.332,95.3595,129.691,25.0512,19.0588,79.0997,0.413391,0.00265503,0.158142,0.43418,1.17451,0.278928,17.5972,12.1017,71.6457,walking
0.930582,0.00389149,-0.249881,50.0271,8.61118,-18.7224,23.3123,-3.69997,-59.7309,0.213819,0.187118,0.199422,77.8776,42.7865,56.5443,1.78096,14.3205,11.287,1.35522,0.539032,0.602478,213.409,133.352,121.521,27.6235,26.1327,74.3058,0.519958,0.00668335,0.0220337,4.91418,0.067988,5.53107,20.2572,0.555393,43.3499,walking
0.723608,-0.527895,-0.401117,9.49018,-8.42696,7.42899,-7.95,15.0541,-117.875,0.130333,0.161575,0.116412,53.9732,53.3109,31.3517,5.62149,7.46062,1.17596,1.01038,0.842957,0.733704,142.097,138.165,89.459,16.1064,28.9974,119.556,0.476379,0.107178,0.0717773,0.0491803,2.53549,0.211072,0.526162,4.76469,115.697,walking
0.759638,0.451767,-0.450237,1.75941,-0.554585,-0.539346,19.6992,44.7689,-56.3489,0.0417314,0.0521508,0.0313541,9.40594,4.88215,14.5822,0.746418,0.890857,0.420009,0.835449,0.608734,0.505798,23.3767,12.182,27.7736,21.0465,46.7407,57.4101,0.669556,0.334229,0.400818,0.64418,0.015488,0.823572,17.9772,43.2914,55.5101,resting
0.741787,0.48089,-0.450699,-2.94968,-2.80413,-0.878735,19.3404,45.1746,-56.1301,0.0282104,0.0420821,0.0235015,8.59844,3.98729,10.1314,0.660711,0.689225,0.394139,0.801544,0.588196,0.486755,23.5058,11.9895,18.6189,20.608,46.3022,56.7086,0.700287,0.370422,0.412109,0.10168,0.0895121,0.173928,18.1818,43.7299,55.1008,resting
0.72473,0.499527,-0.454992,1.29487,-0.142541,-0.391915,19.7984,44.5129,-56.1736,0.0329273,0.0538892,0.0235233,9.45025,3.54595,10.8306,0.421549,0.513746,0.392934,0.80014,0.630676,0.50882,21.6442,8.71702,23.3439,20.6957,45.3084,57.0009,0.679871,0.386475,0.416992,0.36418,0.229512,0.716429,19.0295,43.4084,55.4809,resting
0.719503,0.513118,-0.458033,0.355702,-1.57595,0.769977,19.8241,44.4784,-55.8635,0.0336114,0.0587694,0.0231875,10.4171,3.83583,11.1246,0.352872,0.715876,0.4397,0.790558,0.617706,0.494995,23.5342,10.887,20.7189,20.6665,45.8638,56.9132,0.665527,0.384003,0.420044,0.0491803,0.229512,0.366428,19.1757,42.5314,55.2178,resting
0.716781,0.507332,-0.457914,2.37298,-0.469207,1.59884,19.8072,44.7379,-56.3126,0.0335199,0.0466154,0.0239756,11.2977,3.22699,11.3283,0.47095,0.55849,0.360249,0.782166,0.621094,0.510437,22.7992,9.32951,22.8189,20.8419,45.5715,57.147,0.658783,0.428101,0.417603,0.59168,0.172988,0.386072,18.9126,43.3499,55.6562,resting
0.766471,0.39952,-0.48538,2.49972,0.791853,4.5399,21.9092,42.7653,-57.6386,0.0307157,0.0352022,0.0228755,8.99409,2.97754,7.40521,0.577943,0.728634,0.516499,0.834198,0.484741,0.526978,21.5392,7.17701,18.1289,23.2973,44.753,58.4332,0.709076,0.324493,0.439514,0.20668,0.120488,0.296428,20.6372,41.2745,56.0362,resting
0.800624,0.353722,-0.483065,3.07138,1.29511,-2.64305,23.0785,41.2745,-57.7901,0.0389629,0.0302375,0.025284,9.20694,7.71705,15.7176,0.512853,0.752336,0.384792,0.954865,0.432404,0.573822,22.9042,39.408,70.8936,24.1742,44.1391,58.5209,0.735718,0.284576,0.447235,0.11918,0.050488,0.0710716,21.6311,39.9298,57.147,resting
0.656605,0.414287,-0.510391,53.1431,18.3237,-35.935,5.21998,56.4738,-74.1729,0.377916,0.265422,0.141448,64.5958,64.6203,62.402,6.66917,4.22352,14.6688,1.55447,1.02005,0.728607,205.919,165.548,135.906,19.3511,62.2917,96.5215,0.0271912,0.00256348,0.110962,4.93168,0.382988,0.526072,0,45.9222,56.884,resting
0.62172,0.498913,-0.581315,-10.1899,-13.5401,12.7856,1.38095,62.2439,-69.4932,0.0359699,0.0452732,0.0501129,23.5213,16.7965,11.0383,3.48535,1.14738,1.77568,0.699738,0.603577,0.683655,70.5459,64.9445,45.6564,6.4601,64.7179,76.0304,0.518646,0.392487,0.476227,0.19582,0.085488,0.576428,0.0292312,59.9825,67.641,standing
0.661792,0.40067,-0.611793,34.3778,14.2234,-10.5605,4.5459,61.3953,-73.4474,0.10527,0.105622,0.0570517,48.8271,35.5668,15.9275,2.21126,1.16343,6.91444,1.0433,0.503693,0.703766,173.929,144.128,56.7711,7.16165,63.461,94.6215,0.498352,0.066925,0.480957,1.00082,0.190488,0.523929,0.467699,58.3747,68.0795,standing
0.595901,0.0481041,-0.757712,-30.6145,-16.6196,13.8456,7.37336,55.9911,-91.685,0.10891,0.156293,0.111829,29.7579,30.1852,25.8872,3.2922,1.79907,7.12903,0.819275,0.348358,0.921722,91.0559,110.847,56.0864,13.0664,58.7255,100.175,0.425751,0.0022583,0.422913,3.87082,1.66451,0.0689284,3.42005,52.4993,77.8427,standing
0.49493,0.337134,-0.786896,-6.64907,-0.952311,13.9008,18.8028,51.5904,-75.2164,0.0403875,0.0339053,0.0380059,11.5807,11.5619,20.7293,3.92856,3.34784,1.26747,0.576843,0.393707,0.917877,39.5708,28.3695,80.919,23.5019,57.1178,77.2581,0.40033,0.259613,0.705322,0.0208196,0.107012,0.506429,13.1248,46.3899,73.2242,standing
0.532101,0.30128,-0.77951,-0.162402,-1.49322,2.11589,21.2024,49.7196,-74.2588,0.0357296,0.0277511,0.0315966,13.5032,12.5624,15.2662,1.44079,1.4264,0.531261,0.593201,0.358521,0.871613,30.2608,31.4455,33.3539,24.4665,51.5054,75.0658,0.443726,0.236267,0.699493,0.0491804,0.019512,0.0535716,19.4972,46.2438,73.078,standing
0.631206,0.275053,-0.696565,0.940105,7.1889,0.744521,23.5462,46.7044,-70.4906,0.0470453,0.0536501,0.0887003,25.4341,17.188,14.7225,1.15181,1.70631,1.43522,0.702698,0.397369,0.86731,54.5792,50.0305,35.1389,25.1681,50.2192,74.0134,0.476379,0.128693,0.449646,0.32918,1.80049,0.123572,21.4849,43.7299,68.2257,standing
0.603473,-0.442523,-0.597727,5.45456,-1.83897,16.5481,-19.3378,-16.3907,-102.253,0.199677,0.303441,0.148795,72.8594,61.2791,58.5336,7.43957,2.91011,8.2614,1.04855,0.896149,0.950409,198.219,144.815,186.846,29.7866,21.7188,112.189,0.185913,0.0433044,0.224823,3.53832,0.417988,1.61107,4.79392,10.6986,85.8813,running
0.681543,0.359244,-0.584026,66.4638,36.9341,-33.9596,-6.50528,57.4092,-88.9027,0.173916,0.163131,0.0792649,46.1551,47.5472,26.8657,8.42424,8.31136,15.1101,0.996979,0.597351,0.77301,186.092,173.808,73.8686,17.3049,64.6595,116.282,0.248413,0.0120239,0.452454,2.34168,0.680488,7.64857,0.23385,35.2236,71.3826,standing
0.576035,0.64243,-0.500707,-8.71619,-19.1714,10.5981,-8.23612,17.4236,-122.931,0.0762989,0.0628949,0.0454668,19.9569,37.9398,19.7462,5.54164,4.22196,0.960825,0.871429,0.774933,0.608643,74.7634,157.747,60.2339,22.625,27.5358,124.116,0.43631,0.473907,0.379913,0.34668,0.159512,0.208928,4.29699,13.5633,120.023,standing
0.571867,0.599465,-0.537583,0.927904,-5.72876,2.04535,-17.4502,23.9909,-121.696,0.107236,0.0611665,0.0538116,29.8733,58.8065,28.8387,6.34017,4.16583,1.96083,0.797638,0.737823,0.658813,68.1767,146.81,71.3836,27.5066,30.1082,124.116,0.377716,0.449951,0.425049,0.19582,0.767988,2.55393,9.6463,18.0064,117.626,standing
0.547546,0.221001,-0.715074,14.6182,-5.84543,48.6229,-21.2006,43.2223,-111.999,0.183723,0.343223,0.180318,39.4587,55.8186,47.1594,11.3543,7.66313,3.58528,0.97229,0.792938,1.05783,102.739,114.907,136.394,35.4282,52.2947,118.036,0.152954,0.00860596,0.167938,0.434181,0.212012,2.46643,1.63695,28.7635,106.431,standing
0.840597,-0.0470332,-0.533727,75.7436,-4.34518,-61.013,-14.1603,20.5557,-112.531,0.224698,0.133265,0.12848,38.9064,41.2742,46.5589,4.6879,23.3624,5.65536,1.31482,0.327881,0.825226,135.674,85.087,148.716,21.3096,53.3762,118.883,0.50946,0.0218506,0.260162,2.34168,1.18799,1.52143,5.90471,0.876937,100.438,walking
0.81791,0.212832,-0.474315,59.2761,21.7818,-53.8831,21.8889,1.35084,-69.7165,0.241306,0.251648,0.170458,82.7929,50.1802,73.0325,9.66627,14.3149,9.84894,1.46591,0.630646,0.82959,266.277,138.073,205.136,28.6758,22.3327,98.9769,0.462585,0.00238037,0.0422974,1.90418,1.41951,7.91107,0.701549,0.96463,59.6609,walking
0.843787,0.104635,-0.528607,-3.21534,-4.19138,17.9735,30.3943,6.12616,-63.0978,0.311155,0.206907,0.194208,42.6855,57.7477,53.6292,1.56819,5.5643,2.18854,1.52316,0.631561,1.0275,108.252,129.568,144.829,33.5867,14.5864,67.2318,0.315704,0.00805664,0.20224,3.35668,2.36451,0.103928,27.2143,0.204619,58.6963,walking
0.745861,-0.388318,-0.471406,50.2212,-12.5002,2.83391,31.4723,7.84814,-60.5405,0.201674,0.298302,0.147616,43.4491,42.8015,41.7634,1.46865,6.72534,2.37388,1.32559,0.978973,0.868134,164.059,85.3455,89.739,34.259,19.1464,66.0333,0.481445,0.0129395,0.209259,4.46582,5.61549,1.82107,28.4127,0.350775,57.2932,walking
0.630277,0.197676,-0.750126,-10.9451,-8.16655,6.47655,38.7721,12.2062,-72.0736,0.226085,0.247055,0.160261,63.4215,35.2871,60.3288,1.81407,3.75413,3.04582,1.05206,0.891602,1.13794,124.131,77.0195,130.916,41.9468,20.7542,77.3166,0.161591,0.0050354,0.295227,2.12082,0.0679879,0.421072,36.1006,5.02777,66.8226,walking
0.60038,0.205837,-0.760817,-6.13521,-0.846244,5.71453,43.4961,-2.88326,-73.6077,0.208872,0.240915,0.186213,57.2418,38.8381,49.0304,1.46821,8.25098,2.87153,1.00925,1.03806,1.12131,116.949,91.9295,119.594,45.6299,15.551,80.9705,0.206726,0.00814819,0.354492,1.29832,0.750488,1.22393,40.3391,0.23385,70.5349,walking
0.449241,0.406353,-0.723109,20.7697,14.7452,-2.21828,-27.3188,59.5989,-95.9572,0.267191,0.283626,0.219753,81.934,49.1,51.4939,4.16007,4.25376,9.80572,1.10373,1.36398,1.27039,220.077,131.865,120.716,32.6513,64.9518,109.149,0.0145264,0.00857544,0.269531,0.679181,5.42299,1.40107,19.3803,51.9146,79.2458,walking
0.59441,-0.100842,-0.768407,-0.699589,0.035115,3.17806,15.9585,52.734,-92.2697,0.0977718,0.151097,0.0970902,80.2501,31.887,49.9763,3.86702,1.6972,6.43305,0.825714,0.554565,0.918762,209.426,91.8945,108.096,20.5495,56.2409,104.765,0.470764,0.00527954,0.468597,0.77332,0.00201204,0.701072,9.03245,48.8746,85.1798,standing
0.480634,0.101388,-0.845674,2.16298,-2.01451,-1.36502,17.1552,54.7616,-85.5598,0.0392957,0.0508947,0.0448723,12.9366,10.2938,9.63612,0.624698,0.500638,0.921001,0.562897,0.210938,0.945892,23.6392,30.347,18.6386,18.0941,55.8024,87.4598,0.405792,0.0102234,0.777435,0.27668,0.212012,0.0710716,15.8141,53.9608,83.8351,standing
0.617602,-0.348841,-0.66591,-0.457242,-0.583216,-3.40351,-15.2073,-16.3101,-99.2576,0.0750544,0.102884,0.0700808,31.5494,18.6997,17.7547,0.948646,2.14856,3.20112,0.755646,0.524536,0.888153,76.0867,39.2895,42.0711,17.8603,20.1695,105.203,0.478912,0.10379,0.537262,0.21332,1.25799,0.158572,14.1187,12.131,94.2122,eating
0.60711,-0.317368,-0.678963,-3.77217,-1.89624,-4.5564,-16.412,-13.9663,-101.788,0.084189,0.154991,0.0715485,42.721,21.115,19.2529,1.22327,3.19465,4.2176,0.759674,0.573334,0.799896,90.6992,41.928,45.8336,18.6787,18.5911,108.974,0.389313,0.00979614,0.533386,2.40082,0.470488,0.856429,14.0602,7.57089,94.2707,eating
0.622315,-0.450188,-0.615017,3.41184,6.8336,6.31854,-15.6387,-18.7868,-95.3398,0.0691157,0.0661711,0.0620108,23.3651,25.028,16.3036,0.616135,1.24076,2.15123,0.753082,0.593536,0.748535,54.0258,65.308,42.8564,16.9833,21.2511,99.0061,0.459351,0.291595,0.517548,1.31582,0.417988,0.00107163,14.2064,16.311,90.7629,eating
0.63173,-0.427888,-0.614428,-0.694298,-5.31988,-2.2257,-16.1799,-16.9355,-98.5119,0.0779353,0.0428863,0.0416159,13.0166,16.7694,16.6159,0.702209,0.518621,0.433769,0.810486,0.551788,0.695435,42.1017,44.1895,42.1411,17.0126,18.2111,99.4738,0.453735,0.368042,0.525787,0.32918,1.94451,0.123572,13.9141,16.1356,97.603,eating
0.463601,0.603409,-0.629923,0.626155,-0.848903,-0.0159278,-27.0743,36.1891,-110.668,0.0226441,0.0735203,0.0332006,9.19916,6.07033,11.0716,0.277196,0.553062,0.336237,0.506622,0.754852,0.678619,24.2342,11.7795,23.9761,27.7112,37.2698,111.576,0.40036,0.475952,0.565491,0.0666801,0.102988,0.0185716,26.5419,34.8728,109.88,resting
0.364963,0.713842,-0.568813,-25.3179,-35.1018,10.0418,-32.2429,42.4402,-101.524,0.167192,0.115871,0.0972404,31.3377,54.7909,25.2919,4.1116,4.97683,8.32486,0.854279,0.909973,0.87088,111.286,216.81,92.2415,37.7667,52.9962,111.342,0.0240479,0.448669,0.346588,1.52582,0.212012,0.193572,26.5712,35.6036,80.1228,resting
0.179858,0.887069,-0.424013,0.319647,-7.77731,-2.74169,-35.8959,53.2495,-76.2226,0.0644223,0.057114,0.0477806,15.1771,14.8862,10.919,0.772079,0.89092,1.19683,0.312042,1.01859,0.511017,30.9608,35.8245,24.7614,36.9775,54.5747,78.8658,0.0531921,0.796906,0.304871,1.50832,0.382988,0.663929,33.6451,51.2716,74.0719,resting
0.303743,0.750009,-0.544323,23.6137,36.8058,-6.03381,-34.2298,44.6175,-96.1584,0.136248,0.129098,0.0943836,19.3756,38.5226,12.6334,3.35597,5.0354,12.1533,0.455383,1.0173,0.677979,64.3267,135.903,35.5436,39.2283,53.1716,108.711,0.0430603,0.493286,0.365753,3.35668,1.19201,0.0689284,28.822,38.2637,74.1596,resting
0.458495,0.60102,-0.643812,2.78131,0.957308,0.975208,-28.2064,37.5214,-109.596,0.0215505,0.0649519,0.0362832,7.13833,6.37038,9.30933,0.473036,0.670141,0.680215,0.497284,0.70929,0.692078,18.2842,11.4295,20.0364,29.0558,38.5267,110.465,0.418091,0.493622,0.581848,0.38168,0.247012,0.506429,27.4773,35.8667,107.805,resting
0.43155,0.634279,-0.619793,-13.2604,-15.9413,0.150586,-29.4819,38.3469,-107.728,0.0907559,0.0942491,0.0395146,20.3928,29.3175,9.98591,3.09237,3.29675,4.75097,0.582306,0.846283,0.684692,60.4133,105.037,23.2214,36.4221,45.9222,111.312,0.164001,0.467407,0.529022,0.21332,0.260488,0.438572,27.0096,35.2821,96.2292,resting
0.291089,0.748574,-0.560527,16.6986,13.8098,-2.86896,-35.4787,42.9858,-98.5411,0.153436,0.121112,0.0866689,42.0664,52.341,12.9326,3.71746,4.89797,7.24782,0.797485,1.05222,0.711823,179.004,225.538,53.5336,39.0821,47.1792,110.114,0.0578918,0.519135,0.300903,0.28332,0.107012,0.228572,29.0266,34.4051,91.8737,resting
0.474173,0.587311,-0.644745,7.95495,11.9993,-6.48934,-24.7978,30.9213,-113.385,0.0576652,0.0422796,0.0328272,11.4685,18.6471,11.9188,3.21037,3.72511,2.65216,0.58252,0.694855,0.727814,32.6342,84.978,35.1761,29.6112,36.9483,116.194,0.324158,0.512848,0.592224,0.17168,0.522988,0.0360717,21.1634,26.1619,108.945,resting
0.478129,0.608958,-0.585833,-27.0414,-31.7019,6.04915,-23.6977,30.1542,-112.415,0.183164,0.114832,0.0785761,52.5772,75.9209,14.7289,5.94792,6.26668,7.27676,0.89917,0.956024,0.667358,213.206,302.332,52.6214,38.2052,47.7346,116.253,0.0210266,0.414429,0.338959,0.54582,0.085488,0.631072,19.9649,25.4019,91.7276,resting
0.155875,0.891996,-0.35277,31.642,10.0669,-9.58843,-38.5622,47.4494,-82.1025,0.121312,0.216471,0.13692,74.1569,78.1719,44.7781,2.27552,5.03734,10.7623,0.576752,1.22803,0.675018,228.932,235.776,170.416,41.4499,52.09,109.325,0.0144043,0.231201,0.0281372,7.72082,1.62951,0.963572,31.979,30.8974,72.5519,resting
0.56554,0.54656,-0.564227,-11.1646,-13.0761,-8.00548,-14.101,64.4752,-78.857,0.192869,0.140108,0.112071,31.3059,31.0669,36.3395,2.63151,0.694412,4.37455,1.01367,0.894806,0.758087,86.9192,73.292,103.319,17.948,65.4487,85.9398,0.168945,0.329041,0.248657,0.29418,0.264512,2.45107,9.03245,62.7302,72.9611,walking
0.52467,0.742891,-0.40583,-10.1167,-13.9426,-0.715933,-20.375,63.0517,-73.7468,0.0725102,0.0595964,0.0426672,21.3054,14.059,12.7673,0.840951,0.539244,3.68981,0.746674,0.869995,0.492584,61.4458,51.627,27.6336,21.748,63.841,85.0044,0.4216,0.610901,0.326416,1.78832,0.369512,0.0164283,18.8834,61.7071,70.2134,standing
0.455733,0.78897,-0.402457,-3.2021,-4.13837,-1.89373,-20.647,62.4733,-68.6128,0.0553424,0.0442551,0.0476657,14.8265,6.92921,10.4037,0.62709,0.751745,1.84462,0.573059,0.890503,0.479675,31.7308,19.2695,20.0539,21.7188,63.6948,71.2072,0.340271,0.705505,0.309509,0.469181,0.229512,0.193572,19.2926,60.8302,66.0333,standing
0.4305,0.806339,-0.40931,5.31298,4.47958,-1.44616,-22.6055,62.15,-69.3586,0.0518678,0.04844,0.0475651,14.6185,5.38145,10.4635,0.909051,0.539337,1.60625,0.569733,0.912476,0.48938,30.0967,13.3155,20.1064,24.5542,63.4025,72.8442,0.332825,0.731354,0.322205,1.14082,0.295488,0.751429,20.9296,60.8594,66.618,standing
0.435117,0.804012,-0.400337,-0.116261,-0.049737,0.508006,-23.8128,62.1757,-70.6758,0.0512262,0.0458892,0.0517483,14.466,5.63449,11.3874,0.462572,0.469934,1.05537,0.531433,0.888702,0.494598,28.3642,14.3345,20.1064,24.5835,63.1979,72.2888,0.33606,0.711487,0.300354,0.67918,0.0720121,0.0164284,22.8588,60.9471,68.7811,standing
0.449272,0.805327,-0.382066,2.21124,-0.569963,0.855352,-23.4461,62.3103,-71.1355,0.0656973,0.0468509,0.0538598,20.1353,8.16669,12.5725,0.710624,0.505318,0.792243,0.557861,0.947937,0.485138,69.8042,18.902,22.5739,24.8465,63.4025,72.4057,0.251617,0.735291,0.275879,0.36418,0.142012,0.0710716,22.0403,60.9471,69.5118,standing
0.717727,0.381644,-0.524592,22.3649,14.8046,8.91225,-14.8468,56.3782,-99.9716,0.141624,0.14821,0.132304,78.4383,61.7019,20.4717,3.01697,2.2485,6.79792,1.00061,1.00888,0.64978,338.674,210.068,62.1764,23.7942,62.701,104.443,0.0868225,0.257111,0.0301514,1.83418,1.17049,0.0164284,12.014,53.4931,73.3704,standing
0.538128,0.674059,-0.474348,-23.0137,-13.2474,-4.58025,-19.367,62.6886,-79.229,0.0973761,0.125848,0.0612347,27.3224,13.8319,14.6946,2.73837,1.10168,7.69664,0.68869,0.89444,0.598267,78.8758,45.327,42.7536,23.4142,64.3964,95.7615,0.343445,0.426666,0.356018,0.68582,0.050488,0.663929,15.6972,59.3686,70.3303,standing
0.431989,0.79321,-0.419269,-2.40399,-4.24973,0.351042,-21.5691,62.5132,-69.3754,0.044271,0.0353178,0.0421784,14.5333,9.76127,9.25927,0.972764,0.377299,1.25624,0.519043,0.871277,0.502563,33.7717,27.3195,20.0386,23.5896,63.2856,72.1719,0.317902,0.715912,0.328857,1.41418,0.089512,0.996429,19.9942,61.7948,67.8457,standing
0.430105,0.778593,-0.44058,-0.476866,1.59792,0.511724,-21.0624,62.1022,-70.3923,0.072382,0.0549215,0.068626,22.1703,20.4322,10.244,0.465819,0.744525,2.36208,0.569977,0.882629,0.547821,64.8167,102.933,21.3314,21.865,63.2564,74.2765,0.200043,0.641205,0.241302,0.0733199,0.435488,0.278928,19.9065,60.3917,66.4718,standing
0.463055,0.778594,-0.425539,1.14056,0.591932,0.877632,-20.8135,62.1695,-70.0061,0.0571517,0.033507,0.0449499,15.3148,8.41497,9.51088,0.522328,0.655754,0.604198,0.599518,0.842499,0.506897,26.3233,18.7795,21.1564,22.0111,63.2271,71.0319,0.371185,0.71814,0.320099,0.51082,0.509512,0.246072,19.9065,60.2455,68.9272,standing
0.620607,0.560103,-0.535277,-1.914,0.47102,-0.178724,-10.618,68.0352,-73.5918,0.0268164,0.0500396,0.0252162,6.63788,3.01768,6.22269,0.341499,0.676294,0.859491,0.684326,0.672089,0.59024,18.6233,7.33049,13.9114,11.3417,69.2195,75.6212,0.573303,0.464844,0.48291,0.18918,0.085488,0.173928,9.79246,66.0333,72.5811,resting
0.6241,0.579693,-0.513725,0.846226,-0.00890412,0.212108,-10.7801,67.8164,-72.4925,0.024536,0.0541881,0.0149786,5.39339,3.58582,6.68707,0.429415,0.505122,0.372984,0.678955,0.693085,0.535645,11.8617,7.33451,12.6689,11.5463,68.898,73.2534,0.582428,0.482483,0.485565,0.0141803,0.142012,0.856429,9.85092,66.5303,71.8211,resting
0.609556,0.585681,-0.521084,1.89888,-0.75292,-0.690469,-12.0362,67.9909,-73.2153,0.0242549,0.0592198,0.0213452,7.006,2.6136,7.00187,0.475652,0.556654,0.769407,0.662994,0.707764,0.562744,15.8692,6.93201,15.2961,12.9787,68.8688,74.6858,0.568878,0.447693,0.482788,0.10832,0.032988,0.611429,11.1956,66.618,71.7919,resting
0.610678,0.576024,-0.524309,0.654258,-0.656935,0.288471,-11.8422,67.9298,-73.8708,0.0281101,0.0491912,0.0218204,6.28547,2.48248,7.60733,0.408969,0.567845,0.438123,0.681793,0.675323,0.564545,13.6817,5.61951,14.7164,12.4525,68.6934,74.5688,0.566223,0.462524,0.494171,0.17832,0.299512,0.0535716,11.0202,66.7349,72.815,resting
0.614888,0.576149,-0.521643,0.982516,-0.40292,0.330363,-11.7394,67.8368,-73.6636,0.0274904,0.0555204,0.021896,6.18723,2.4971,7.31745,0.442026,0.45771,0.447408,0.665131,0.695068,0.563354,11.4067,5.72049,14.2789,12.5987,68.5472,74.5688,0.575287,0.461182,0.483124,0.38168,0.032988,0.718572,10.6694,66.2087,72.6396,resting
0.610594,0.585071,-0.520488,0.507363,-0.697238,-0.707438,-12.0114,68.2806,-73.1719,0.0221126,0.0494077,0.018363,5.7892,2.689,6.47319,0.491901,0.540759,0.398376,0.657349,0.683075,0.552917,12.9117,5.14701,11.4636,13.3587,69.1903,73.8673,0.568909,0.467224,0.47644,0.10168,0.177012,0.0689284,11.3417,66.9395,72.055,resting
0.603795,0.591868,-0.522889,0.600695,-1.05254,-0.395087,-12.3976,68.1902,-73.1914,0.0158108,0.0286102,0.0135384,4.57626,2.06947,4.58266,0.363528,0.527127,0.412747,0.644104,0.643524,0.55426,9.83832,5.26549,10.6761,13.0079,69.0441,74.2181,0.576263,0.524597,0.486664,0.21332,0.019512,0.211072,11.4586,66.8518,72.2596,resting
0.578834,0.613675,-0.5197,-0.318849,-1.11034,-0.0191017,-13.0867,67.8147,-72.1976,0.0178962,0.0396645,0.0159976,5.41208,2.72447,4.86497,0.337343,0.43033,0.471593,0.61908,0.700928,0.549133,11.2208,7.66701,10.1314,13.8264,68.5472,72.9027,0.533234,0.540039,0.482117,0.0908197,0.00201202,0.0164284,12.4233,66.7641,70.9734,resting
0.578865,0.618594,-0.517072,0.886532,-0.28042,-0.0116826,-13.333,67.812,-71.5802,0.0265046,0.0458611,0.0190946,7.29674,3.20532,7.25756,0.380628,0.529012,0.476855,0.632904,0.747101,0.553772,18.8617,6.44201,19.1614,14.2648,68.8395,72.4642,0.535828,0.540375,0.4823,0.0383198,0.120488,0.193572,12.3648,66.6764,70.5349,resting
0.584717,0.616353,-0.515226,0.184413,-0.672844,-0.389263,-13.4694,67.9245,-71.8804,0.0317102,0.060165,0.0251109,8.36593,3.34863,9.20274,0.435342,0.413677,0.414547,0.648987,0.753418,0.561768,15.0467,8.61201,18.1114,14.4987,68.6349,72.698,0.539612,0.470093,0.468872,0.38832,0.107012,0.718572,12.5987,66.9103,70.9149,resting
0.572133,0.63556,-0.503017,0.736987,1.02731,-0.921152,-14.163,67.5888,-71.0044,0.0250417,0.050538,0.0191481,7.29062,3.19478,6.69801,0.569548,0.578423,0.581563,0.641602,0.783173,0.538635,16.5342,7.41799,11.3411,15.4925,68.6349,72.5519,0.527679,0.539612,0.459808,0.21332,0.120488,0.438572,13.2417,66.1795,70.0965,resting
0.587427,0.628301,-0.49672,5.31245,6.12829,-2.69767,-16.4829,67.4497,-74.746,0.0397606,0.0590351,0.0313884,13.3758,8.93105,11.211,1.20908,0.605075,2.49243,0.664185,0.766724,0.581909,50.0642,47.5805,31.8861,18.6495,68.4887,78.4274,0.49118,0.506622,0.408508,0.679181,0.715488,0.438572,14.8787,66.0041,71.2949,resting
0.620841,0.621286,-0.462854,4.32979,4.58564,-2.87003,-19.949,66.912,-80.7482,0.032735,0.051799,0.0317479,10.6058,3.97045,11.67,1.36389,0.754306,1.40171,0.695709,0.721954,0.520203,25.7042,15.118,21.2986,21.6896,68.8688,82.8413,0.570496,0.496796,0.406494,0.13668,0.247012,1.52143,16.6033,65.1564,77.7843,resting
0.627859,0.63763,-0.438079,1.05093,2.51693,-2.77245,-22.1768,66.129,-83.6287,0.0322037,0.0605528,0.0302957,11.8559,4.90158,11.9333,0.834725,0.527694,0.718499,0.71051,0.751343,0.513092,30.1492,14.8905,22.2436,23.4142,67.1441,84.7705,0.565247,0.502808,0.390076,0.0208196,0.124512,0.243928,19.7895,65.1272,81.7889,resting
0.626501,0.651817,-0.41357,0.35835,1.02572,0.708996,-23.1228,65.7171,-84.6669,0.0308591,0.0251745,0.0168899,6.58324,3.28858,9.33446,0.505915,0.62302,0.376968,0.696075,0.700592,0.458893,14.3883,7.24299,14.9789,24.0573,66.9395,85.4429,0.554962,0.609283,0.388123,0.40582,0.037012,0.296428,22.1573,63.8994,83.7767,resting
0.647147,0.640533,-0.407257,1.6804,-0.717389,-0.263581,-22.3282,65.8473,-84.7794,0.0296394,0.0341284,0.0190596,6.91812,3.79266,8.8285,0.359602,0.549037,0.540275,0.707825,0.69574,0.453918,12.6383,8.78701,14.1586,23.385,66.4426,86.1444,0.589539,0.564087,0.371246,0.33582,0.019512,0.403572,21.6896,64.221,83.9521,resting
0.644129,0.635648,-0.407562,1.17024,0.87299,-0.0891088,-22.2193,65.5559,-85.8982,0.0297252,0.025903,0.0148654,5.29865,3.70204,8.31242,0.513242,0.591431,0.587014,0.709442,0.691956,0.440552,15.2983,8.53799,16.0136,23.385,66.7056,87.0506,0.582581,0.581421,0.378448,0.0141803,0.054512,0.908929,21.2511,64.3087,84.7705,resting
0.652176,0.635421,-0.400785,1.55578,-0.493601,1.06111,-22.2148,65.5231,-86.031,0.0331719,0.0562984,0.0245746,9.52876,3.44003,11.2101,0.514643,0.537651,0.353327,0.707001,0.749359,0.446289,29.3792,7.47451,19.5814,22.9757,66.3256,86.8459,0.585449,0.547272,0.358398,0.0558197,0.015488,1.20857,20.8126,64.1041,84.9459,resting
0.653542,0.632059,-0.399698,-0.146496,-0.42148,0.137323,-21.7144,65.8012,-85.6554,0.0383999,0.0465608,0.0242024,9.14537,4.34322,11.5844,0.535146,0.498621,0.434357,0.726013,0.719238,0.444244,21.9942,10.2395,19.6164,22.8296,66.6764,86.8459,0.5979,0.533173,0.359222,0.10168,0.032988,1.01393,20.6665,64.4548,84.7121,resting
0.658243,0.630947,-0.398983,0.767748,-0.56095,0.650122,-21.2936,65.9988,-85.5004,0.0393692,0.0503267,0.0225497,9.51919,4.44937,12.3475,0.533552,0.461817,0.633163,0.740173,0.716736,0.45224,21.2658,8.39799,19.0586,22.1573,66.8226,86.6998,0.58963,0.521912,0.367126,1.06418,0.562012,0.488928,19.9942,64.9225,84.2736,resting
0.669333,0.628452,-0.401563,0.717368,-1.18936,1.20801,-21.3521,65.9244,-85.9557,0.0591382,0.0397526,0.0206385,8.42469,3.40244,9.90224,0.444656,0.514932,0.448139,0.956055,0.707977,0.443054,20.0583,11.202,17.9539,22.128,66.881,86.6998,0.602386,0.558655,0.362335,0.32918,0.019512,0.698929,20.5788,64.4841,85.0336,resting
0.820734,0.278869,-0.486994,16.2892,0.891558,-1.23407,-12.4171,46.2819,-108.89,0.19128,0.195775,0.152882,61.781,37.0942,71.3672,1.7223,3.25097,1.78803,1.14508,0.891693,0.740051,180.037,80.6205,146.719,15.6679,51.7393,113.154,0.414612,0.0450745,0.105713,3.68918,0.610488,1.85393,9.29553,38.059,105.408,walking
0.79053,0.244202,-0.520885,7.3154,2.21838,-5.37097,-15.2596,38.6658,-112.486,0.193687,0.20508,0.144543,66.6406,36.3232,65.9276,2.26505,2.34783,1.23106,1.18179,0.660004,0.859039,153.874,83.8795,126.611,19.9065,42.9991,114.733,0.302795,0.00741577,0.230408,0.189181,1.20549,1.89107,10.7571,33.9082,110.202,walking
0.938615,0.316658,-0.0946849,7.16533,2.26718,-0.000549697,7.22985,55.0211,-54.2035,0.329996,0.172445,0.114169,57.0116,49.8422,75.8225,2.26468,3.13259,4.02572,1.72296,0.615356,0.356201,166.183,110.896,227.394,12.394,60.5671,60.7425,0.328308,0.00595093,0.00192261,13.5308,1.61201,5.45893,2.36773,48.7284,46.9746,walking
0.989192,0.173363,-0.126672,18.9556,-1.6332,-3.1829,6.76659,60.9506,-73.4465,0.287189,0.165199,0.123837,69.8845,58.7072,52.0614,3.07846,2.48724,9.30606,1.5434,0.563629,0.327606,171.934,129.253,98.8236,13.5341,64.0164,84.5659,0.47821,0.00808716,0.0193176,0.69668,1.48549,0.943929,2.3385,55.0132,54.3408,walking
0.752346,0.650709,-0.014678,5.34745,0.387236,0.692016,-4.04277,52.362,-47.2155,0.0714583,0.0356076,0.0264722,11.6753,10.7484,18.8095,0.615246,1.18779,1.26616,0.945953,0.734528,0.0942383,29.9042,23.448,37.7836,5.23239,55.0424,50.0731,0.638977,0.569336,0.00271606,0.16082,0.0329879,0.208928,2.7185,50.6869,45.6007,standing
0.777847,0.630327,-0.0521139,1.52767,1.20178,1.01126,-3.81512,54.8723,-49.5903,0.0556719,0.0317103,0.0131656,10.9879,5.9842,13.885,0.512407,0.557345,0.527847,0.914642,0.718018,0.0851135,26.2883,15.8005,27.0036,4.91084,56.0655,50.5115,0.672668,0.56778,0.0238953,0.17832,0.015488,1.57607,2.68927,53.4639,48.4069,standing
0.767211,0.640183,-0.0402795,-1.66157,-2.13595,-0.513368,-4.68762,54.7837,-49.3095,0.0765143,0.0484841,0.0214599,14.2451,9.89419,19.4129,0.658988,0.830445,0.758676,0.935303,0.754333,0.0799255,41.1458,20.9145,29.9436,5.87547,56.1532,50.8916,0.65329,0.548035,0.00106812,0.0841804,0.597012,4.93607,3.15697,52.6747,47.6761,standing
0.750426,0.665959,-0.0285672,-9.30429,-10.9077,-1.06382,-1.93192,50.6763,-45.924,0.0719202,0.0411577,0.0288925,17.2397,16.6117,19.4463,2.13905,1.60743,0.73115,0.884613,0.757751,0.0952454,45.4683,55.792,36.4536,4.29699,53.3762,47.7346,0.625488,0.588654,0.00183105,0.0558199,0.0545121,0.121428,0.321543,45.6299,44.6361,standing
0.72344,0.688177,-0.0539671,8.8676,8.37095,-0.241851,2.86466,46.7195,-44.4465,0.0760742,0.0431919,0.0236946,23.6019,26.2538,22.0844,4.47298,3.57183,1.16592,0.912506,0.777008,0.107544,66.3567,71.118,39.6736,8.62321,52.4116,46.3899,0.558929,0.60437,0.012146,0.0383197,1.20951,1.83643,0.146156,41.1576,42.7068,standing
0.734328,0.667145,0.00417626,-3.79445,-2.23246,5.14815,-4.19158,51.035,-45.6804,0.0902362,0.0530806,0.0513125,16.7869,18.9857,29.0237,1.39055,1.55225,1.214,0.922821,0.783081,0.129272,40.4983,72.102,62.0714,6.69395,52.7623,47.5884,0.560486,0.563843,0.000427246,0.65082,0.277988,3.30643,1.37387,47.2084,43.1745,standing
0.85065,0.492536,-0.14168,13.4388,-5.21117,3.5127,9.52052,45.9338,-47.2722,0.136813,0.109502,0.0939336,36.2327,42.3455,44.7855,4.59775,5.96605,3.255,1.23022,0.793488,0.297913,89.7784,128.732,104.266,20.0818,54.6331,53.8439,0.614838,0.30249,0.0093689,1.10582,3.70799,1.31143,2.57235,34.0544,41.7422,standing
0.810466,0.544035,-0.192799,-6.5271,-8.57435,-2.66586,7.09876,51.7818,-50.2901,0.0511966,0.071939,0.0262435,16.8494,9.91459,16.0607,1.10549,1.19836,0.70578,0.893158,0.794952,0.256714,53.9558,27.9495,32.3739,9.00322,53.4347,51.3593,0.682312,0.433777,0.139526,0.75582,0.172988,1.54107,5.55393,48.5823,48.6992,resting
0.735656,0.635502,-0.227971,-2.91838,-3.80057,-1.07707,10.2602,47.7452,-48.1979,0.04029,0.0755645,0.0176309,12.0261,7.91269,12.5957,0.739429,0.885741,0.526955,0.815796,0.851929,0.258209,22.3333,24.537,22.9589,11.7802,49.9269,49.3715,0.668213,0.517609,0.190552,0.10168,0.190488,1.40107,9.09091,46.4192,47.15,resting
0.721146,0.653297,-0.200729,10.301,10.078,-2.51473,4.41923,52.5374,-49.7834,0.0504982,0.0939683,0.0257085,16.9757,10.8273,18.1488,2.59678,2.46237,1.43947,0.836212,0.893585,0.252228,41.4717,39.0405,31.9386,10.2309,55.7732,51.9146,0.656281,0.50415,0.154266,1.44918,0.207988,0.106072,0.555393,47.2961,46.653,resting
0.756422,0.618127,-0.20044,3.21616,1.61329,4.20686,1.61657,55.6695,-51.9208,0.04812,0.0695997,0.0174251,11.9465,4.4463,14.5182,1.03829,0.568315,0.457101,0.842041,0.837036,0.240753,32.1092,10.6555,26.2314,4.32622,56.5332,52.7331,0.652832,0.51712,0.16568,0.0841804,0.457012,0.453929,0.116925,53.727,51.0962,resting
0.801428,0.553242,-0.205764,0.406076,-0.679738,0.271502,4.14818,55.4339,-52.4133,0.0228558,0.0241999,0.0134695,6.19178,3.15017,7.03926,0.509225,0.491289,0.387525,0.845612,0.627716,0.235077,16.6217,6.84451,19.9314,5.49547,56.6793,53.4639,0.75943,0.519714,0.167694,0.0208197,0.032988,0.00107164,3.44928,54.5455,51.71,resting
0.813522,0.534502,-0.198445,1.35903,0.303974,2.3052,4.37494,55.5101,-52.649,0.031969,0.034845,0.0155598,7.57274,2.75142,10.732,0.578555,0.450147,0.371264,0.866516,0.614319,0.2435,20.7867,6.61701,20.2639,5.43701,56.2993,53.4639,0.746277,0.464661,0.173035,0.556681,0.032988,1.03143,3.33236,54.5455,52.0608,resting
0.802221,0.555549,-0.195943,-0.78127,-1.51603,-1.82002,3.7602,55.3639,-52.8438,0.0256092,0.0339817,0.0221853,7.3881,2.40667,8.23898,0.554894,0.559273,0.621251,0.855011,0.649292,0.246155,19.6733,6.51201,19.0586,5.08623,56.4747,54.0193,0.74942,0.483551,0.147614,0.51082,0.050488,0.123572,2.54312,54.2824,51.33,resting
0.963764,0.0147446,-0.160341,14.4978,2.01585,-4.06585,10.4745,56.5039,-88.6432,0.227062,0.18234,0.176375,52.3735,64.1707,55.1346,3.046,1.30388,3.67252,1.52417,0.36142,0.493103,131.264,135.361,127.224,15.2587,58.8717,93.4814,0.432434,0.00994873,0.00131226,2.34832,4.44701,3.55143,4.00468,54.5162,78.7781,walking
0.927399,0.112559,-0.294191,-66.1888,-20.3264,25.8894,14.0319,47.2731,-73.2543,0.146232,0.151139,0.130526,82.2881,62.1598,52.6278,5.99105,8.95478,17.2217,1.25546,0.507935,0.543152,244.058,206.065,115.849,22.4496,57.5563,96.3753,0.672516,0.00772095,0.053009,1.36832,0.645488,0.736072,4.96931,32.622,51.71,walking
0.979251,0.0153623,-0.198215,1.65284,1.18801,9.36085,21.1306,27.2798,-50.1811,0.234103,0.202643,0.162635,66.915,38.5583,64.6737,1.37833,2.32219,1.72123,1.48505,0.563843,0.469391,132.251,120.661,172.461,24.2911,31.7159,55.1885,0.576874,0.00140381,0.0122375,2.27832,0.877012,4.98857,18.7664,21.5726,47.6761,walking
0.911199,0.0542362,-0.267309,-80.1973,2.09695,15.7001,23.7694,2.21803,-69.1832,0.157015,0.282113,0.149013,92.8251,56.884,49.9223,3.25603,16.2967,14.8629,1.41284,0.545258,0.568695,249.781,159.318,129.429,30.1082,29.0266,89.0675,0.604675,0.00131226,0.0478516,3.15332,2.20701,0.296428,18.708,0.116925,48.6992,walking
0.959168,0.162049,-0.158628,-25.6997,-15.2434,12.6365,18.3847,-11.9387,-95.4098,0.198049,0.184547,0.160468,66.1452,38.2404,57.689,4.36866,2.72937,8.8738,1.44531,0.645844,0.522949,208.971,95.832,138.564,26.6881,16.2526,111.78,0.617249,0.00500488,0.00585938,3.01332,0.842012,0.943929,12.2186,4.32622,81.4089,walking
0.933652,0.108954,-0.202407,34.0899,12.178,-2.67966,11.2336,-5.46181,-109.826,0.219255,0.150546,0.199224,63.3621,34.1284,62.5292,3.92187,5.57485,7.43587,1.46323,0.440521,0.590881,155.204,93.8505,120.436,21.0757,16.7203,116.282,0.521667,0.00494385,0.0343933,3.19918,0.754512,3.69143,7.3078,0.0876937,87.8106,walking
0.985693,0.140114,-0.105344,62.7522,-0.550319,-20.2852,21.7817,-0.0806073,-52.4895,0.231519,0.268652,0.190554,78.9296,48.1026,64.2651,1.74615,11.8042,13.0309,1.36972,0.951294,0.453156,246.134,120.556,189.069,25.1973,20.6957,84.7121,0.482574,0.0101013,0.00268555,3.13582,3.92201,9.20607,18.328,0.23385,39.9591,walking
0.983238,0.141537,-0.170093,0.0391267,-4.09647,9.49556,24.416,17.6627,-38.897,0.217284,0.144829,0.141985,55.7319,48.9579,63.6004,2.11702,2.95686,1.79487,1.44479,0.494049,0.489044,150.094,102.377,122.761,29.5235,24.6419,41.6545,0.621643,0.00350952,0.00708008,1.71832,0.645488,2.88857,20.9588,12.8617,35.5159,walking
0.904598,-0.0329256,-0.386078,-32.9484,-3.32062,30.8784,27.2515,-5.09598,-45.2827,0.216533,0.23417,0.186546,55.5878,47.6371,72.7813,5.58783,17.7653,8.83819,1.33249,0.699341,0.712646,130.343,109.391,165.794,34.9021,34.0251,64.0456,0.512299,0.00088501,0.0582581,10.1358,8.29299,2.08143,12.014,0.292312,36.1006,walking
0.707814,0.490327,-0.441172,-31.6168,-21.1765,16.8206,-15.2374,67.2743,-89.5511,0.279693,0.246856,0.170313,52.8441,47.8492,59.666,3.46099,2.42957,10.675,1.42694,1.20169,0.777802,129.678,128.96,114.589,21.3096,70.8857,103.42,0.207733,0.0740356,0.114685,1.09918,0.579512,0.526072,6.66472,62.4963,71.558,walking
0.778062,0.493321,-0.323276,-28.6715,-16.2982,8.27376,1.78222,63.6851,-57.8468,0.198813,0.180844,0.148441,44.0179,40.4548,61.3563,3.38713,3.49317,6.5926,1.23495,0.943207,0.575623,92.4384,99.017,162.696,7.16165,70.1257,73.0196,0.389252,0.16983,0.0288086,3.83582,0.0504879,2.88643,0.0584624,57.0593,49.3131,walking
0.823502,0.571331,-0.125004,6.40117,14.418,-10.9964,-3.57241,59.342,-47.6363,0.178364,0.157633,0.10881,33.7724,35.5773,41.8678,6.47362,2.81888,2.9586,1.37027,0.864044,0.44928,62.4017,102.723,101.621,14.3818,64.7471,53.6101,0.532135,0.271301,0.000274658,2.47082,0.207988,0.0885718,0.0292312,55.6562,43.613,walking
0.636871,0.58674,-0.477475,8.9901,10.8077,0.759903,36.601,12.6837,-74.312,0.0825233,0.0787273,0.0519627,25.518,21.8935,16.1123,0.76672,1.98622,5.11396,0.856445,0.713196,0.576508,67.4242,55.438,37.1864,37.796,16.5156,78.6027,0.506958,0.404724,0.309174,1.16918,0.0504879,0.401428,34.259,8.36013,63.7825,standing
0.726894,0.578565,-0.341149,27.7167,26.1865,-16.1165,26.2151,30.3819,-53.5064,0.0654931,0.0615368,0.0602407,24.9489,18.0834,19.6055,6.6996,10.0246,5.18306,0.861603,0.707275,0.495575,81.5642,72.7105,49.8411,35.0775,45.7469,63.3148,0.589783,0.441528,0.224274,0.0558197,1.34549,0.0885716,14.5571,15.3464,48.1438,standing
0.732277,0.5808,-0.332043,10.7099,5.14723,-0.189351,12.5048,49.1722,-50.361,0.0686165,0.0628915,0.0411238,20.4311,7.9487,21.0919,1.56313,1.93787,1.01744,0.877777,0.7341,0.428833,48.9792,25.1105,35.5436,15.7556,51.6808,52.4408,0.593109,0.404602,0.221375,0.77332,0.667012,1.97857,10.4355,44.4899,48.2023,standing
0.743214,0.564278,-0.33093,-1.28505,-0.358372,-1.32155,10.4595,51.8181,-51.26,0.0689409,0.054208,0.0342255,20.7335,8.00882,22.2375,0.792248,0.851086,0.722997,0.905823,0.661194,0.437439,49.5808,16.413,38.6739,11.8094,52.9377,52.6162,0.622742,0.469574,0.252716,1.15832,0.347988,1.66143,9.23707,49.4885,49.5469,standing
0.746497,0.590759,-0.288323,-1.91611,-1.21163,1.73406,11.0981,49.1341,-48.8276,0.0760269,0.0444919,0.0381756,17.5863,7.75573,19.9519,0.749259,0.936525,0.839093,0.920624,0.680939,0.364014,39.2733,15.1745,34.0714,12.3648,51.5054,50.9208,0.624268,0.449921,0.214539,0.0733195,0.277988,0.631072,9.734,47.3253,47.2961,standing
0.827068,0.257827,-0.315302,26.7601,9.56413,1.21754,12.1894,55.3799,-61.2979,0.360596,0.46244,0.259435,106.947,46.0168,72.6461,3.10171,4.15575,7.46712,1.61169,1.73605,0.925262,441.732,140.523,298.112,18.328,60.6548,68.6934,0.106384,0.00534058,0.0109253,0.21332,1.34549,1.05107,4.09237,46.2146,48.7869,standing
0.505931,0.56167,-0.59458,26.1152,22.4765,3.14839,12.813,2.80354,-109.833,0.187159,0.202366,0.0656675,46.4274,50.8238,13.9928,7.64735,9.07579,9.85294,0.91272,0.812317,0.741943,166.772,200.373,35.2614,24.1158,12.8033,118.913,0.253082,0.20993,0.398102,0.44082,0.0720121,0.298572,4.44315,2.13388,94.3584,standing
0.684255,0.414321,-0.564789,-21.068,-7.61451,0.871801,17.6858,-5.39626,-104.463,0.0566875,0.0826934,0.0449343,24.4115,16.4442,8.57093,1.83002,3.57448,3.83475,0.778625,0.606537,0.630859,66.1358,46.0445,19.7914,20.4034,9.55861,112.92,0.537201,0.256836,0.434113,0.17168,0.842012,0.138928,13.4756,1.14002,98.5969,standing
0.627259,0.615308,-0.416324,14.1897,10.4524,-10.2699,17.3137,5.69212,-111.292,0.119511,0.157685,0.121298,44.3548,32.4243,32.5704,3.76705,1.30915,3.14815,0.880035,1.22781,0.532776,169.572,122.726,135.784,26.9804,7.71704,114.353,0.167999,0.110413,0.0749207,0.24168,0.0720121,0.331428,13.3587,3.21543,102.046,standing
0.760934,0.465739,-0.42638,-21.3777,-19.1459,16.6223,33.545,9.19012,-68.6154,0.0560503,0.0517394,0.0610345,28.8988,27.4702,25.1926,0.755645,6.90904,9.19402,0.923431,0.546875,0.534363,70.7208,83.6345,84.314,35.1359,16.5156,85.5305,0.633789,0.355164,0.325775,1.22168,0.837988,1.50393,32.0666,0.467699,60.6548,standing
0.783132,0.461066,-0.396562,19.5585,19.1223,-13.9815,33.4875,7.65504,-67.6224,0.0623498,0.0393095,0.0569984,20.649,27.2456,14.7542,0.615048,5.61384,7.57702,0.908325,0.549957,0.589325,79.0617,112.016,54.8811,34.3467,14.031,84.5951,0.59198,0.375916,0.328918,0.346681,0.155488,0.368572,31.5405,0.613856,60.9471,standing
0.76322,0.515814,-0.366538,3.69767,1.39163,-1.37245,32.8338,17.6379,-59.6839,0.0344156,0.0283814,0.010981,10.4718,4.81301,10.2898,0.419053,1.35532,0.655715,0.836853,0.560242,0.387939,30.5342,9.65799,21.6661,33.7036,19.7311,60.8009,0.68573,0.470398,0.34494,0.22418,0.0895121,0.0164284,31.862,14.7033,58.4624,standing
0.785568,0.457798,-0.388695,2.09881,-1.8814,4.83475,32.6247,16.4864,-59.5874,0.038088,0.0446034,0.0210735,9.7593,6.03974,9.21151,0.305417,0.941499,0.433337,0.921844,0.536041,0.443939,24.3983,27.057,23.2739,33.4697,17.831,60.8886,0.722626,0.357422,0.345917,0.00331974,0.247012,0.0514283,31.9205,13.5925,58.5501,standing
0.838511,0.337722,-0.40579,-0.915966,-1.09709,8.90642,32.4077,7.65149,-61.8267,0.0379562,0.0676568,0.0225979,11.2207,5.90742,12.7232,0.644795,2.65596,0.516289,0.913483,0.474487,0.488831,33.6208,16.5045,37.2914,33.2651,12.891,62.6133,0.769531,0.2229,0.373077,0.0316804,0.085488,1.71393,30.8682,3.24467,60.6255,standing
0.872353,0.150489,-0.443426,0.192896,-2.59996,7.97362,30.0063,-0.399493,-63.36,0.0414241,0.0530861,0.0217125,7.7537,7.85368,8.70989,0.994721,2.1478,0.616695,0.944122,0.281158,0.492798,18.6692,33.9695,29.5914,31.8036,4.67699,64.4548,0.755798,0.0845642,0.385498,0.23082,0.142012,0.0535716,28.442,0,61.5609,standing
0.884776,0.0668437,-0.432691,2.8163,-0.0884493,3.34514,28.1948,-4.03657,-62.7931,0.0246715,0.0401625,0.017004,6.84585,4.60808,5.90699,0.828066,0.793981,0.958709,0.981873,0.117676,0.483887,19.2117,10.957,17.7964,29.4358,5.55393,64.1918,0.841827,0.00158691,0.396301,0.00331974,0.177012,0.0535717,26.922,2.54312,60.9471,standing
0.857733,0.031323,-0.467928,-25.846,-15.4333,5.5443,26.3577,-7.31401,-66.9519,0.0935833,0.102037,0.066272,39.0287,25.64,9.6846,0.523121,1.90013,8.48174,1.01855,0.338745,0.633911,133.668,94.642,31.7089,27.2435,10.9909,89.6229,0.624878,0.00177002,0.387909,0.25918,0.382988,0.526072,24.7588,4.64776,61.444,standing
0.527531,0.536529,-0.596525,-25.2829,-16.8646,-3.08533,19.8763,0.170959,-105.013,0.150388,0.207492,0.0866638,39.7179,26.8997,11.8629,4.13639,8.81157,9.05766,0.75885,0.904846,0.730072,103.334,73.677,29.0511,24.4081,11.8386,115.843,0.159882,0.270325,0.442139,0.19582,0.382988,0.488928,13.4464,0.204619,91.5229,standing
0.848948,0.197536,-0.447828,64.5993,36.5004,2.18376,30.4492,0.157671,-70.0912,0.190302,0.201373,0.0725062,60.6161,88.3041,25.4802,2.53821,3.01237,12.7043,1.23886,0.745911,0.611786,222.054,293.578,56.5064,32.3297,5.81701,111.342,0.218353,0.00790405,0.158295,2.83832,0.037012,1.06857,19.2049,0,59.164,standing
0.446254,0.690621,-0.555582,0.375326,0.122083,-0.26888,-25.3266,30.8469,-118.146,0.0265328,0.035777,0.0393656,14.9184,8.38293,7.99755,1.07021,1.80367,0.851916,0.516724,0.76178,0.641724,29.5433,18.9855,15.7839,27.565,33.7913,119.79,0.383972,0.61615,0.470459,0.21332,0.509512,0.141072,23.7358,27.7112,116.749,standing
0.471495,0.70464,-0.50086,21.5355,27.008,-10.78,-23.8713,30.9576,-117.853,0.0969573,0.0571471,0.0838052,38.5987,46.1485,20.4277,7.5128,6.07847,2.35981,0.768036,0.784363,0.613159,127.922,137.321,60.8136,28.2958,35.6329,123.443,0.331604,0.551514,0.213043,0.59168,0.019512,0.456072,0.760012,12.8617,115.697,standing
0.859645,-0.242911,-0.427957,-3.4296,2.96292,0.841039,6.60182,62.6647,-124.731,0.0602144,0.0438126,0.0386353,11.0035,17.1228,9.98678,2.25275,1.80525,2.28384,0.957825,0.321472,0.500214,27.7933,43.0655,23.2411,10.6986,66.4426,127.419,0.75174,0.12442,0.348907,0.644181,0.0895121,0.0514284,3.39082,60.0702,120.14,eating
0.874967,-0.233768,-0.381676,3.45904,-1.56958,0.333538,10.7287,65.6161,-120.403,0.0508246,0.0502957,0.0411926,10.0379,15.8047,10.1022,1.39281,0.828827,1.17517,0.967224,0.375,0.474792,21.4517,37.4695,18.7961,13.5341,67.5826,122.654,0.733917,0.14621,0.311279,0.0908198,0.190488,0.0164284,8.09705,63.8702,118.094,eating
0.872212,-0.218674,-0.407316,-2.5774,0.895796,1.21914,9.26806,65.6081,-120.552,0.0708557,0.0694859,0.0430347,13.566,17.5785,13.5485,0.956278,1.65225,1.64677,0.996185,0.353882,0.518616,36.1758,52.5895,33.6536,11.4586,69.7457,122.596,0.756226,0.0725708,0.327271,0.416681,0.155488,0.401429,7.8632,62.4379,116.516,eating
0.877714,-0.213986,-0.382074,-0.483233,-0.906703,-0.405708,11.9139,67.9511,-117.912,0.0570225,0.0674884,0.0469788,16.471,17.7172,15.7982,0.865192,0.90744,0.913775,0.981354,0.355377,0.5,36.3858,54.182,31.3261,13.5048,70.2426,119.848,0.715759,0.0870056,0.298981,0.0491803,0.877012,0.138928,9.67553,66.121,115.931,eating
0.890347,-0.22448,-0.37666,-0.314065,0.469964,2.45369,13.3728,69.1566,-115.881,0.0679414,0.0780427,0.0486275,17.7982,18.6296,16.2758,1.57924,1.04416,1.57781,1.04608,0.431519,0.499847,49.6683,47.7205,44.8536,16.7495,71.8796,118.153,0.726227,0.0833435,0.29425,0.38832,1.27951,1.36607,10.8448,66.3841,112.686,eating
0.881632,-0.213385,-0.388103,1.98639,-0.77996,-0.2201,13.0185,70.0353,-115.278,0.0475738,0.0720521,0.041371,15.5034,16.9719,14.6482,0.848394,0.735434,1.15777,0.969299,0.381287,0.46756,41.3733,51.6795,35.7011,15.3756,71.5288,117.539,0.789063,0.04245,0.26947,0.00331979,0.365488,0.158572,11.2833,68.1672,112.657,eating
0.870263,-0.218021,-0.39582,2.10093,0.509737,-1.34699,9.55595,66.7056,-120.185,0.0604739,0.0502537,0.0353678,12.6336,17.2643,11.9392,1.1373,0.918776,1.06651,1.0058,0.322174,0.471375,34.0583,49.177,29.3136,12.2186,69.0149,122.245,0.696503,0.0839539,0.332367,1.48418,0.054512,0.263572,6.81087,65.1272,117.305,eating
0.873998,-0.225096,-0.399706,0.458583,-0.671779,2.12915,11.0299,67.4825,-118.463,0.064955,0.0643456,0.0578784,12.4041,15.0764,11.9541,0.769645,0.957644,0.875335,0.991272,0.372589,0.523132,25.9558,35.702,31.0111,12.9494,69.7457,120.111,0.724335,0.106354,0.310242,0.19582,1.01701,0.296428,9.52938,65.0979,116.399,eating
0.860659,-0.210398,-0.418796,-0.379294,-1.98534,0.510129,10.2052,67.5117,-118.875,0.0596594,0.0714598,0.0560481,16.5,17.8262,15.2126,1.29817,0.9185,1.38469,0.964447,0.346375,0.510895,42.1608,40.1645,33.5661,13.9433,69.3949,120.783,0.715088,0.0140991,0.25119,0.609181,0.435488,0.103928,8.27244,66.1795,115.931,eating
0.874797,-0.231624,-0.38622,4.88396,-1.53087,0.427931,13.4251,68.5313,-115.763,0.0566661,0.0577439,0.0435174,15.8657,16.1428,14.7228,1.39084,1.30982,1.84946,0.983093,0.34613,0.472504,34.6817,56.037,37.8711,16.0187,70.9442,120.023,0.733276,0.052887,0.307617,1.26332,0.579512,1.03357,10.6986,65.361,113.242,eating
0.878793,-0.22758,-0.388364,0.107521,1.6133,-0.463504,10.7792,66.1414,-119.615,0.0585025,0.0553852,0.0520042,11.7061,16.1779,11.3041,0.774895,0.790755,0.990495,0.976929,0.344391,0.57016,30.0858,39.692,28.2111,12.394,67.3487,121.426,0.748535,0.0972595,0.311188,0.32918,0.264512,0.613572,9.61707,64.4256,117.714,eating
0.867017,-0.212598,-0.412452,-2.30853,-3.53541,-0.281614,9.55772,67.2681,-119.153,0.0557919,0.0655195,0.0471068,16.2005,14.7244,13.773,1.70413,0.843939,1.18514,0.999298,0.358887,0.513123,36.1058,35.7195,31.8336,12.9202,69.2195,120.813,0.734406,0.0494385,0.301788,0.43418,0.264512,0.596072,6.89857,65.3025,116.399,eating
0.88602,-0.226816,-0.399843,2.80889,1.363,2.02998,12.5916,69.464,-115.023,0.0521259,0.064769,0.0477662,19.269,12.7181,17.09,1.35626,1.10517,1.63353,0.99707,0.352905,0.51004,46.8617,29.6955,47.3036,14.6448,72.3765,117.48,0.780396,0.0819702,0.294434,0.75582,0.352012,0.403572,9.50015,67.2318,111.956,eating
0.893986,-0.169315,-0.410427,11.9227,1.2458,-18.9053,7.05889,67.6747,-118.922,0.0593511,0.0769582,0.0465686,24.5696,11.5966,23.9378,4.7919,2.20789,3.3157,1.02548,0.354889,0.546448,72.5692,29.7695,59.1336,11.7217,69.8042,127.74,0.725769,0.00531006,0.318665,0.33582,0.522988,0.438572,0.96463,61.1225,115.931,eating
0.653114,0.561177,-0.489704,1.10237,-0.108602,-1.00919,-12.5809,65.5886,-76.134,0.0339375,0.0503438,0.0275109,8.03396,4.14795,9.79086,0.542778,0.626519,0.437619,0.735992,0.697937,0.554749,18.7217,8.50701,18.3411,13.6217,66.6764,76.995,0.597961,0.46991,0.445587,0.0841804,0.037012,1.73143,11.634,64.1625,75.1242,resting
0.646397,0.57726,-0.486052,-2.73862,-5.41905,0.751953,-13.0274,65.3513,-75.5335,0.0474531,0.0548312,0.027802,9.25933,13.6842,9.38405,0.505211,0.56515,0.935596,0.736755,0.680359,0.538239,26.7608,55.547,22.6089,14.0602,66.4133,76.9073,0.500275,0.465637,0.441742,0.0841803,0.00201201,0.366428,12.2186,64.1918,72.2011,resting
0.541441,0.67991,-0.480337,-12.1594,-12.2547,2.65998,-8.90844,63.3255,-64.6444,0.0489251,0.069048,0.0304289,10.7045,8.78732,7.24117,1.09695,1.25824,3.54435,0.630066,0.794586,0.547211,32.3958,34.3195,15.8889,11.5171,65.5072,72.1719,0.473602,0.50116,0.433685,1.17582,1.68201,1.73143,6.51856,60.8009,60.2748,resting
0.540795,0.699098,-0.466431,3.42775,-0.690339,2.11854,-3.58038,61.2731,-59.8115,0.0427378,0.0603433,0.0340469,17.6036,16.3886,10.2471,1.9365,1.41659,2.21586,0.64209,0.818756,0.531677,35.9483,38.3445,20.2114,5.87547,63.6071,63.3148,0.456757,0.58197,0.408264,0.749181,0.172988,0.383928,0,58.6378,56.0947,resting
0.527874,0.682073,-0.492233,-0.469449,-1.20633,-2.08729,-6.1173,62.6221,-62.2696,0.0312344,0.0602215,0.0279694,8.80901,3.69256,7.99849,0.570333,0.482549,0.516927,0.591125,0.85257,0.553619,16.9717,8.96202,14.9461,7.19088,63.4025,63.8994,0.468109,0.592957,0.448578,0.24168,0.470488,0.681429,5.057,61.2102,61.444,resting
0.528332,0.673417,-0.508542,3.48184,0.00329285,1.04415,-6.1669,63.0783,-63.2758,0.0271333,0.0538735,0.0259674,7.89885,4.04888,7.63039,0.600463,0.604589,0.813711,0.591766,0.797882,0.559814,23.7267,11.7755,13.9289,7.04472,64.1625,65.0395,0.482697,0.574097,0.466553,0.00331977,0.124512,0.0514284,4.50161,61.7363,61.4148,resting
0.538172,0.651839,-0.522869,1.55949,0.159201,0.633168,-5.73818,63.4628,-64.3494,0.0203647,0.0448099,0.0252429,7.03485,2.23564,6.70238,0.307212,0.471215,0.442379,0.578552,0.765991,0.576569,14.7317,5.52799,13.2989,6.37241,64.2502,65.2733,0.506409,0.569183,0.4823,0.38832,0.037012,0.0689284,5.26162,62.5256,63.4902,resting
0.533006,0.659057,-0.521114,0.563578,-1.5086,0.200973,-5.99417,63.2386,-64.0571,0.0211791,0.04409,0.0233332,7.06172,2.62163,7.1171,0.42737,0.507823,0.569136,0.59314,0.729218,0.567444,14.3467,7.64951,12.3561,6.95703,64.2502,65.2441,0.492523,0.569763,0.477783,0.819181,0.0895121,0.0339284,5.17393,62.0579,63.0517,resting
0.52698,0.651422,-0.52803,0.327062,-0.634132,-0.630011,-5.62568,63.0624,-64.0651,0.0183872,0.0322816,0.0231975,6.17032,2.09451,6.00616,0.301219,0.514311,0.453916,0.570099,0.709595,0.563293,14.6442,4.62201,11.4986,6.31394,63.7241,65.2149,0.493652,0.582214,0.488373,0.40582,0.015488,0.156428,5.17393,61.824,63.2856,resting
0.525176,0.660002,-0.53106,0.262364,-0.880723,-0.0806159,-5.59734,63.2138,-64.004,0.0189024,0.0362033,0.0226225,6.59389,2.45202,6.3287,0.446347,0.517086,0.465641,0.5672,0.731537,0.571991,12.6842,7.33451,9.85357,6.37241,64.1918,64.8348,0.495636,0.585175,0.492889,0.22418,0.067988,0.0339284,4.5893,61.6486,62.9933,resting
0.523731,0.65547,-0.53149,2.23191,-0.378526,1.58878,-5.49193,63.3981,-64.1209,0.0158125,0.0293716,0.0185517,5.29006,2.09787,4.59195,0.513901,0.588211,0.55294,0.561127,0.738007,0.567078,12.0542,4.25451,10.1839,6.37241,64.3087,65.0979,0.495453,0.583557,0.488251,0.14332,0.120488,0.121428,4.53084,62.204,62.9933,resting
0.554574,0.636685,-0.522158,-0.275356,0.563296,-0.229637,-5.96228,63.4796,-65.1617,0.0475341,0.0437311,0.0298231,13.6729,14.1785,7.1384,0.776909,0.594066,1.25504,0.68277,0.735626,0.582306,38.7242,45.5855,15.9764,7.48319,64.5425,67.9041,0.420868,0.544708,0.472992,0.47582,0.282012,0.00107163,4.64776,62.3794,63.4025,resting
0.542989,0.647571,-0.519667,1.19093,-1.09019,0.187714,-5.06143,63.0429,-64.3034,0.0232381,0.0441481,0.025521,7.52644,2.65258,7.05755,0.381612,0.478345,0.462382,0.597107,0.731293,0.563934,13.7408,6.80951,13.0036,5.96317,63.5487,65.0979,0.503906,0.555481,0.484009,0.19582,0.032988,0.351072,4.29699,61.2394,63.3733,resting
0.569014,0.629099,-0.513165,8.88828,11.2632,-4.7282,-7.16785,63.942,-67.0892,0.0424988,0.0416436,0.03117,11.9252,11.1772,8.46933,2.45217,0.989874,2.66102,0.65744,0.700775,0.565521,40.9467,36.2755,23.2061,12.4525,65.5072,71.6165,0.495117,0.526459,0.453735,0.00331974,0.102988,0.418929,4.38468,62.3502,64.1918,resting
0.600707,0.61247,-0.500521,-6.92642,-10.0566,4.67672,-8.74633,64.3326,-68.9573,0.0389409,0.0455553,0.0233864,10.92,11.3238,9.80489,2.68131,1.03857,2.84697,0.723389,0.698181,0.54422,29.2458,33.952,32.0414,12.394,65.6533,72.8734,0.525452,0.512878,0.449524,2.40082,0.439512,0.543572,5.40778,61.2102,64.1041,resting
0.545506,0.658514,-0.503987,-0.326801,-2.63178,0.155898,-4.93388,62.8188,-63.2847,0.0247729,0.0358156,0.0210792,7.60948,3.98527,5.57356,0.45682,0.581678,0.601627,0.593018,0.73642,0.548737,16.4883,12.2345,10.7111,5.78778,63.8702,64.4841,0.500671,0.584412,0.464813,0.13668,0.037012,0.313928,4.00468,61.6486,61.9994,resting
0.541229,0.643398,-0.521765,-11.6408,-13.2819,4.49165,-3.32173,62.3989,-62.755,0.086566,0.0596188,0.0289808,28.1932,31.5797,14.3253,1.53394,1.19804,2.23431,0.870941,0.811401,0.588531,85.8409,138.637,52.1489,4.70623,63.6656,65.3025,0.294647,0.481354,0.431641,1.29168,0.137988,0.121428,1.05232,58.1701,55.7732,resting
0.515967,0.745604,-0.404792,0.228962,-3.14988,10.2104,11.479,51.0838,-53.2788,0.039755,0.0343936,0.0264034,29.0396,25.6742,12.1746,2.16101,1.76435,0.615457,0.60144,0.859131,0.450378,91.6967,87.463,47.1614,14.9372,55.8901,54.5747,0.395813,0.671143,0.355194,0.16082,0.382988,0.0185717,5.26162,48.0561,51.8562,resting
0.675699,0.511974,-0.5209,19.7218,10.5834,-7.44601,3.85498,60.4546,-63.988,0.0531633,0.0409099,0.0571138,34.3257,26.7082,13.2309,2.64909,2.9451,3.21608,0.852722,0.642273,0.598328,96.4392,96.423,36.7161,12.3356,62.9348,66.7933,0.579895,0.440308,0.33847,0.53918,0.120488,0.158572,1.25694,50.4239,54.8378,resting
0.623622,0.561179,-0.534347,-0.132182,0.116248,-2.89494,0.304714,62.6558,-65.0262,0.0277674,0.0190642,0.0150168,5.43671,6.19002,6.46705,0.729488,0.621267,0.46259,0.714325,0.606018,0.564331,14.8258,20.442,22.7511,1.92926,63.6656,65.7995,0.560333,0.532349,0.498749,0.14332,0.225488,0.313928,0,61.1809,64.1625,resting
0.559849,0.654547,-0.466128,-19.9777,-24.2098,10.0895,2.05947,58.9098,-59.7894,0.162347,0.0944932,0.0576304,39.4942,54.7245,24.3579,6.83472,5.69728,4.00535,1.20428,0.87088,0.540771,132.391,277.92,72.4315,16.0772,63.6948,63.5487,0.0958862,0.370178,0.341705,0.25918,0.212012,0.138928,1.11079,47.3253,52.967,resting
0.506401,0.737981,-0.439337,-1.84718,-6.50405,2.29673,18.3926,46.3155,-54.7953,0.0306202,0.026827,0.0190477,8.46475,7.79004,6.02874,1.53504,1.47567,0.590044,0.575317,0.805328,0.470978,16.9608,28.4745,15.5739,20.2865,49.43,55.7732,0.425934,0.687805,0.398468,0.93082,0.107012,0.00107162,14.9956,43.9638,53.4347,resting
0.577689,0.650339,-0.473354,21.7736,20.7286,-11.5643,10.1131,54.029,-57.7671,0.0642059,0.0657001,0.0385305,19.0523,20.708,10.0005,7.055,5.56118,1.94632,0.70105,0.798706,0.542389,55.6117,78.1705,29.0511,19.8772,61.1225,61.0056,0.445435,0.531281,0.370789,0.68582,0.142012,0.00107163,0.438468,45.133,55.247,resting
0.583597,0.627377,-0.511433,3.62767,0.71496,-1.18312,-0.622714,61.7762,-62.3307,0.0256798,0.0506936,0.0269552,8.17795,3.72467,7.78862,0.587958,0.535375,0.621124,0.631592,0.750305,0.557343,20.0167,10.743,15.6286,1.92926,62.8179,63.4317,0.520905,0.540863,0.46463,0.29418,0.102988,0.103928,0.116925,60.7425,61.0932,resting
0.623003,0.592346,-0.490827,13.0607,13.4852,-6.1404,-7.52659,64.7587,-69.4817,0.0468326,0.0494853,0.0392442,17.5046,20.2959,13.1563,3.63111,1.69088,4.23616,0.700195,0.708008,0.577087,48.1567,84.138,42.1936,11.1956,66.5303,73.5457,0.522064,0.487549,0.37677,0.15418,0.00201203,0.473572,1.11079,59.9532,62.1456,resting
0.650194,0.586624,-0.461346,0.0380509,0.156551,-0.820398,-11.3116,65.2769,-72.5404,0.0296807,0.0474504,0.0230247,9.87554,5.87053,8.40897,0.512621,0.57587,0.420642,0.708221,0.700806,0.500305,19.4042,14.1905,15.5914,12.4525,66.2672,73.6042,0.590393,0.48465,0.41748,0.00331975,0.120488,0.0864284,10.3479,63.8702,71.7042,resting
0.651127,0.590786,-0.459942,0.775701,-0.284131,-0.103428,-11.968,65.3282,-72.7698,0.0301113,0.0431509,0.0212334,8.74691,4.98406,8.70591,0.423543,0.515215,0.656406,0.707764,0.689087,0.494934,17.6192,10.253,17.2036,12.5987,66.1795,73.955,0.593842,0.494202,0.424164,0.25918,0.037012,0.176072,11.1371,64.0748,71.558,resting
0.646461,0.596041,-0.456599,0.936917,-0.550874,-0.0838065,-12.1637,65.5302,-72.8504,0.0322075,0.0480546,0.0236767,10.6761,5.13598,8.94346,0.508021,0.436592,0.548,0.710907,0.708374,0.500427,20.6467,10.8655,17.1139,13.2417,66.1795,73.955,0.581055,0.48114,0.410095,0.64418,0.102988,0.296428,11.0786,64.4256,71.938,resting
0.644934,0.597396,-0.461129,0.646837,-0.375344,-0.0143377,-12.3285,65.3158,-72.9159,0.032692,0.0446931,0.0229932,8.84967,4.56205,8.81108,0.480536,0.527245,0.482148,0.695557,0.699829,0.499146,17.8817,9.16799,14.9811,13.4756,66.0918,73.9842,0.582916,0.484009,0.411499,0.63332,0.522988,0.281072,11.1663,64.1333,71.938,resting
0.645311,0.596876,-0.461224,0.742293,-0.591177,-0.0260054,-12.1593,65.3592,-72.7946,0.0351163,0.0528732,0.0236694,9.49467,4.55559,8.86149,0.412925,0.761674,0.476241,0.71463,0.708069,0.497559,19.2467,9.11549,15.6286,13.0956,66.2964,73.6919,0.577637,0.462799,0.418213,1.30918,0.457012,0.121428,11.3417,63.6071,71.9088,resting
0.617071,0.614097,-0.473164,-8.30838,-12.5219,4.71119,-9.30084,64.7516,-69.2204,0.0416561,0.0452191,0.0321906,12.5055,12.9413,10.2421,2.7761,0.788055,3.32124,0.704895,0.740784,0.527527,30.6458,53.937,31.6739,13.0371,66.3841,73.7504,0.545837,0.522369,0.396851,0.63332,0.575488,0.0339284,5.14469,63.081,64.4256,resting
0.566408,0.643924,-0.500322,-0.626421,-2.59784,0.0800596,-4.69383,63.3255,-64.0633,0.0280153,0.0381632,0.0250905,8.35005,2.87485,6.90252,0.460561,0.520166,0.479884,0.626831,0.719696,0.536438,15.1692,11.2895,11.4439,5.58316,64.1041,64.981,0.524231,0.559174,0.462433,0.23082,0.137988,0.191428,3.91698,62.2333,63.0225,resting
0.561678,0.641597,-0.505937,0.687669,-0.692995,-0.0647109,-4.35722,63.0199,-64.1882,0.0237056,0.0361555,0.0242362,7.93873,2.41179,6.62918,0.340583,0.414287,0.396231,0.612762,0.725464,0.543945,17.4617,5.91701,15.3289,4.99854,63.6071,65.361,0.523529,0.550507,0.459717,0.26582,0.032988,0.716429,3.7416,62.1748,63.6071,resting
0.56214,0.641294,-0.509912,0.54502,-0.721632,0.264075,-4.13666,62.8524,-63.9331,0.0270222,0.0455174,0.0255594,8.64492,2.98706,7.04604,0.440448,0.41342,0.417325,0.62674,0.757233,0.544159,15.6067,6.17951,13.1086,4.79392,63.6071,64.8348,0.520569,0.547607,0.466705,0.53918,0.050488,0.103928,2.8062,62.0871,63.0517,resting
0.56451,0.638306,-0.512474,0.931079,-0.669132,0.413089,-3.9967,62.9995,-64.0987,0.0247456,0.0367847,0.0252573,8.24241,2.66964,7.29936,0.30175,0.459859,0.419265,0.616577,0.713135,0.552521,16.0442,6.19701,14.5239,4.64776,63.9287,64.8641,0.517365,0.531036,0.472321,0.0733198,0.037012,1.13857,3.44928,61.8825,63.081,resting
0.566857,0.63516,-0.514721,1.28691,-0.349889,0.364832,-3.86118,63.1846,-64.2467,0.0249148,0.0435265,0.0262128,8.45051,2.7916,7.05798,0.398684,0.506347,0.424195,0.626251,0.740479,0.55658,16.5692,6.10951,14.8214,4.67699,64.1041,65.0979,0.516907,0.545807,0.470032,0.45832,0.037012,0.226428,3.06928,61.9702,63.2856,resting
0.560262,0.636974,-0.510817,1.11775,-0.746026,0.300139,-3.7416,63.1235,-64.0748,0.0250049,0.0333336,0.0268051,7.73764,2.77253,6.03776,0.268969,0.441906,0.37135,0.607208,0.707214,0.556061,13.5592,6.94951,12.0586,4.26776,63.8994,64.8933,0.518829,0.540863,0.473297,0.87832,0.102988,0.541429,3.09851,62.2625,63.2856,resting
0.561152,0.637839,-0.514644,0.908807,-0.453828,0.399301,-3.89129,63.1191,-64.2068,0.0263517,0.0404524,0.0258216,8.52883,3.29524,7.03038,0.344275,0.551131,0.436624,0.610504,0.73053,0.549316,15.3092,6.54701,13.3164,4.73546,63.9871,65.0395,0.506836,0.54422,0.468689,1.11668,0.369512,0.576429,3.06928,61.941,63.3148,resting
0.563908,0.630529,-0.519682,0.760321,-0.528602,0.111349,-3.76197,63.3804,-64.4167,0.0240661,0.0392581,0.0268211,7.50209,2.52881,6.4915,0.381025,0.51154,0.471093,0.605743,0.717346,0.561615,13.8217,5.96951,12.5114,4.79392,64.1625,65.5364,0.517517,0.545746,0.476776,0.26582,0.137988,0.508572,3.04005,61.7656,63.461,resting
0.56549,0.630211,-0.521358,0.493049,-0.567844,0.0588487,-3.69819,63.5797,-64.4478,0.0245922,0.0426663,0.025608,7.6529,3.25644,6.58247,0.355914,0.467697,0.404471,0.612579,0.752716,0.569733,14.8717,7.83799,13.8589,4.32622,64.3087,65.1564,0.527893,0.533997,0.47998,0.58082,0.0154879,0.0514284,2.95235,62.5548,63.5194,resting
0.56872,0.618294,-0.527954,0.565168,-0.256556,-0.255619,-3.05333,63.5832,-64.8278,0.0216507,0.0378151,0.0236635,6.72484,3.49623,5.72309,0.366872,0.525742,0.381,0.605835,0.73291,0.561859,12.9117,6.65201,12.7936,3.85852,64.221,65.4779,0.52832,0.549835,0.48587,0.0383197,0.050488,0.211072,2.28004,62.2917,64.1625,resting
0.567242,0.619266,-0.533999,1.41365,-1.59345,0.143171,-2.89389,63.5442,-65.3725,0.0224319,0.033191,0.0216641,5.77001,3.11484,5.40251,0.329144,0.451999,0.379632,0.613495,0.680359,0.570038,11.8267,8.83951,10.3786,3.50775,64.3964,66.0626,0.523926,0.549164,0.486481,0.0141803,0.207988,0.526072,2.10465,62.6425,64.601,resting
0.562098,0.614849,-0.540509,1.23441,0.0313987,-0.212133,-3.05333,63.5974,-65.5453,0.0215701,0.0314573,0.0254139,7.6535,2.71656,5.52068,0.419738,0.50351,0.402121,0.604156,0.675995,0.579834,15.3792,5.14299,11.5139,4.00468,64.3964,66.2964,0.511017,0.558899,0.499481,0.0491803,0.155488,0.0514284,2.28004,62.6133,64.7179,resting
0.532754,0.646774,-0.534467,-0.801951,-1.49906,-2.18645,-4.45997,63.4645,-64.8357,0.0236076,0.0332947,0.0243271,7.85759,3.34572,5.02124,0.658406,0.447373,0.504887,0.594116,0.721375,0.576019,16.0683,9.25951,11.3586,5.87547,64.3087,65.9456,0.498901,0.591858,0.498322,0.59832,0.015488,0.0514284,3.04005,62.3794,63.9287,resting
0.521283,0.647365,-0.543212,1.77214,0.309808,-0.70797,-5.43081,63.9995,-65.4912,0.0306733,0.0377671,0.0305613,10.4785,3.49248,7.38885,0.43439,0.56859,0.645866,0.585083,0.720917,0.59967,19.5792,14.243,14.8586,6.34317,64.981,66.6764,0.444031,0.559265,0.494751,0.20668,0.032988,0.0360717,4.61853,62.8179,64.221,resting
0.557217,0.601029,-0.561743,8.33623,4.46474,0.720141,-5.75235,64.9969,-68.7226,0.0302957,0.0310806,0.0223636,5.6988,8.63546,4.47469,0.39858,0.571958,1.86141,0.650818,0.666382,0.612396,23.3067,29.083,10.9364,6.4601,65.8872,72.5519,0.513123,0.544586,0.518738,0.0383196,0.137988,0.0710716,4.73546,63.6656,65.4779,resting
0.615473,0.537776,-0.559825,3.09206,4.3661,-1.57236,-7.70198,66.0059,-73.9444,0.0243348,0.0223144,0.0278024,7.21614,7.0282,3.00128,0.715766,0.531438,0.417741,0.669586,0.574341,0.626892,22.1342,22.013,10.1861,8.85706,66.9687,74.5981,0.568298,0.471375,0.501953,0.00331962,0.312988,0.298572,6.34317,64.8641,72.9027,resting
0.631008,0.553864,-0.530631,-0.296047,1.87473,-0.776906,-8.92527,65.7525,-73.5537,0.0198246,0.0201031,0.0230343,4.89217,4.74597,4.15048,0.438304,0.567267,0.828481,0.673279,0.594574,0.565582,16.9017,10.5505,11.7436,10.1725,66.7933,74.7735,0.598572,0.512054,0.478699,0.0666803,0.137988,0.0339284,8.2432,64.7179,71.4703,resting
0.648468,0.580603,-0.48689,1.40888,2.59648,-0.832593,-10.2708,65.6365,-72.784,0.03199,0.0369462,0.0277891,7.82833,7.7312,8.7237,0.899579,0.65462,0.533299,0.703583,0.636078,0.524689,20.8217,20.6305,16.6414,11.9556,66.4718,73.7796,0.558136,0.515808,0.428162,0.33582,0.159512,0.138928,8.44782,63.6656,71.7919,resting
0.656253,0.573975,-0.464472,1.6804,-0.830343,0.883463,-10.634,66.0147,-73.0019,0.0362581,0.0499176,0.027069,11.4858,6.14594,11.0073,0.609972,0.568133,0.66057,0.721191,0.673248,0.515228,23.5692,12.672,24.6564,11.6925,67.1733,74.8027,0.585999,0.475098,0.41922,0.15418,0.085488,0.943929,9.52938,64.2794,71.7334,resting
0.660083,0.55873,-0.491118,0.563581,-0.756632,-0.183508,-10.2752,66.0634,-74.3589,0.0407407,0.0493018,0.0275055,9.53476,4.51256,10.8084,0.594521,0.57021,0.711756,0.735596,0.663635,0.539795,19.8242,10.4455,21.8739,11.2833,66.9395,75.5335,0.571106,0.450684,0.437469,0.0841803,0.019512,0.00107157,8.88629,64.981,73.1657,resting
0.669698,0.535346,-0.491493,1.83949,0.948293,0.503237,-9.85624,66.1494,-75.5166,0.037308,0.0428352,0.0298488,8.91183,4.5348,9.37643,0.574055,0.499633,0.699289,0.744263,0.639252,0.547516,20.9442,9.79799,19.4786,10.7863,67.0272,76.5858,0.578186,0.452637,0.44574,0.29418,0.137988,0.0360716,8.53552,65.0687,73.7504,resting
0.68942,0.531765,-0.480692,1.58706,1.0114,-0.765248,-9.59315,66.02,-75.8054,0.0313798,0.0390898,0.0231727,7.9486,5.92995,9.57647,0.662811,0.481457,0.465677,0.747559,0.627808,0.523743,17.9342,13.4555,21.6486,11.3417,66.8226,76.7319,0.616425,0.433441,0.43335,0.0491804,0.072012,0.211072,8.41859,65.0979,74.715,resting
0.686224,0.542572,-0.468191,-0.310893,-0.588525,1.39839,-9.82789,65.9439,-75.4245,0.027933,0.0274046,0.0183204,7.07849,4.29292,7.13162,0.667069,0.702869,0.52386,0.727814,0.63266,0.497498,16.1033,8.64701,16.5036,11.634,66.881,76.1766,0.615448,0.498962,0.423584,0.0666803,0.400488,0.138928,8.38936,63.6948,73.9842,resting
0.680376,0.58804,-0.419544,0.915705,4.49072,-3.58222,-13.3303,65.6834,-76.0499,0.0481906,0.0673307,0.0435958,19.6449,12.6058,14.3891,1.59024,0.52069,1.01231,0.80661,0.711151,0.553528,60.6867,39.4955,36.1714,15.0833,66.881,77.8135,0.589783,0.448792,0.32074,0.12582,0.540488,0.438572,9.00322,64.601,73.955,resting
0.707726,0.594354,-0.366738,-7.18944,-6.1795,3.36687,-10.9289,65.268,-71.5403,0.0628632,0.0814355,0.0372185,13.0661,14.35,12.021,1.26816,0.490689,1.84943,0.838806,0.753113,0.432678,29.9217,26.987,31.6739,13.2417,66.121,75.095,0.597321,0.434021,0.306641,0.36418,0.732988,0.438572,9.47091,64.3087,67.758,resting
0.660225,0.588048,-0.441391,-0.152321,-9.80147,2.21453,-5.04106,63.8622,-66.051,0.0403456,0.0579216,0.0284666,17.0199,13.4113,13.3052,1.25615,0.522373,1.06295,0.754486,0.709595,0.508301,35.4517,46.8495,50.9939,9.47091,65.1272,68.3134,0.590729,0.414001,0.389862,2.87332,1.97549,0.0360716,3.04005,62.8764,64.1333,resting
0.682888,0.552622,-0.457977,-1.70505,-2.15132,1.15286,-4.59993,64.2316,-68.0272,0.0420543,0.0743457,0.0334807,14.635,16.3589,9.73047,0.906262,0.569262,0.573438,0.741333,0.71524,0.521698,34.2092,38.8655,25.0064,6.75241,65.1272,69.0149,0.571259,0.336243,0.397552,0.66832,0.877012,0.631072,3.04005,62.6425,66.5303,resting
0.680398,0.528828,-0.486562,9.51086,8.31208,-4.14328,-5.99063,64.9686,-71.853,0.0427994,0.0524942,0.0367877,20.7777,17.7806,12.865,2.31617,0.880832,3.63209,0.775665,0.654907,0.538818,61.9817,58.133,37.9936,8.68167,65.9749,76.235,0.589661,0.416534,0.412933,0.63332,0.177012,0.368572,1.22771,62.204,64.9225,resting
0.717425,0.526633,-0.438412,2.92979,1.86466,1.2918,-9.10331,65.757,-74.9108,0.0362236,0.0511313,0.0265926,10.3869,5.21206,9.31826,0.627066,0.483335,0.758735,0.794067,0.624146,0.475128,26.1942,15.608,22.3989,10.4063,66.8226,76.2058,0.640839,0.396881,0.394989,0.0208198,0.124512,0.296428,8.09705,64.7179,73.078,resting
0.732791,0.516135,-0.422448,0.000930939,1.01882,-1.48699,-8.63738,65.8012,-75.4351,0.0415923,0.0508688,0.0292081,11.0712,5.42461,11.8627,0.541543,0.527633,0.489759,0.813934,0.591766,0.468933,24.0067,14.1555,23.0639,9.70476,66.7641,76.615,0.647217,0.378937,0.369171,0.941681,0.172988,0.106072,7.80474,64.8348,74.4811,resting
0.730613,0.517157,-0.423774,0.717897,-0.843601,1.13483,-8.5488,65.6329,-75.3767,0.0324389,0.0387444,0.0192956,7.64367,3.65654,9.11248,0.426226,0.53546,0.508839,0.795624,0.59433,0.452087,17.4267,9.64049,20.0714,9.41245,66.618,76.0889,0.648132,0.43927,0.377075,0.35332,0.177012,0.368572,7.8632,64.5425,74.3058,resting
0.734718,0.521095,-0.421249,1.19199,-0.723222,-0.416306,-8.78885,65.6746,-75.157,0.0362402,0.0450443,0.0224783,9.62761,4.33174,9.75852,0.540851,0.482916,0.548935,0.826813,0.594177,0.458008,21.3467,10.0995,23.3964,9.76323,66.4426,76.0889,0.627869,0.396698,0.381592,0.72082,0.00201203,0.00107163,7.60012,64.4256,73.8965,resting
0.718842,0.540623,-0.41645,0.618202,-0.786329,-0.427448,-10.1494,65.6037,-75.025,0.0369898,0.0360952,0.0257112,10.0653,4.38907,11.4242,0.529922,0.592133,0.608739,0.776794,0.612579,0.461578,19.9292,9.20701,20.5461,11.0786,66.4718,76.3227,0.657959,0.458252,0.366638,0.64418,0.452988,0.663929,9.06168,64.1625,73.4581,resting
0.71802,0.559168,-0.402144,1.01964,5.18223,1.0696,-11.6978,65.7375,-75.5476,0.0778939,0.0648332,0.0391461,13.0145,18.5427,16.2601,1.2905,0.550866,0.648663,0.977142,0.695038,0.467529,40.5442,61.1955,53.5664,13.7094,66.5595,76.9658,0.586151,0.365601,0.292145,0.30082,0.002012,0.191428,8.7109,64.2502,74.335,resting
0.784526,0.490849,-0.343823,-8.25641,-8.2445,4.008,-6.45301,65.4824,-72.5696,0.0860201,0.0969618,0.034124,22.0228,25.6673,22.4622,1.76128,0.582944,2.35864,0.9711,0.66806,0.423981,53.5883,55.5995,48.6489,9.20783,66.4426,76.1473,0.654022,0.320923,0.296326,1.64832,0.544512,0.298572,3.04005,63.9579,66.998,resting
0.683687,0.562901,-0.427107,-5.53543,-5.14115,-4.05737,-2.63435,63.3069,-64.857,0.122307,0.0765462,0.0763053,42.388,88.2611,19.5844,1.42519,0.79266,1.6568,1.00699,0.710419,0.544952,191.184,441.996,52.9189,5.37854,64.8641,68.898,0.422241,0.337646,0.130066,0.33582,2.64049,0.383929,0.0584624,62.0579,61.941,resting
0.677897,0.568912,-0.445968,9.92237,3.64065,-5.59313,-6.68775,64.5505,-68.3302,0.0746274,0.12259,0.0408891,42.145,38.7274,30.6876,1.37786,1.17343,3.81768,0.828735,0.817017,0.510986,128.132,108.813,120.366,9.03245,66.0626,72.9904,0.463074,0.277252,0.326538,0.24832,2.02799,0.158572,4.03391,61.5025,59.6317,resting
0.684373,0.5557,-0.456216,-4.13543,-2.79246,4.23179,-5.58671,64.7294,-68.9051,0.0580839,0.0757781,0.0384281,14.3129,16.137,17.8629,1.65474,0.506811,1.53719,0.827881,0.766388,0.525208,38.7417,43.8005,52.9714,8.62321,66.0041,71.7334,0.571869,0.390656,0.351898,0.89582,0.037012,0.0710716,3.12774,63.4317,66.0041,resting
0.633179,0.626865,-0.439142,-2.30058,-3.10057,-1.37457,-6.02606,63.5992,-64.8304,0.0805331,0.0856701,0.0308008,9.20716,11.2927,18.4777,0.814737,0.652765,1.02518,0.771698,0.822418,0.505035,18.5358,22.682,39.0786,7.16165,64.9225,67.0856,0.513916,0.420441,0.394714,0.00331975,0.032988,0.436429,3.82929,62.4963,62.9933,resting
0.809625,0.232815,-0.531788,-9.94224,-3.1414,7.3155,-1.40753,63.755,-87.6396,0.0658953,0.0981391,0.0415053,34.0552,16.9376,15.4993,2.04345,0.935287,3.14714,0.952728,0.385132,0.686554,138.632,42.593,41.5964,4.85238,65.0687,94.4461,0.651154,0.0673523,0.440033,0.51082,0.032988,0.123572,0.0584624,61.1809,82.432,standing
0.707791,0.362286,-0.572625,-14.9091,-11.5785,-0.452902,2.89478,63.5186,-74.7876,0.0737743,0.0893174,0.0444951,14.6452,16.4574,16.6002,1.59783,0.728286,3.95869,0.823639,0.579712,0.648712,39.4483,39.237,41.9136,5.02777,65.1564,81.5843,0.576416,0.220398,0.47995,0.28332,0.627988,0.316072,0.263081,62.1456,69.0149,standing
0.794633,0.226489,-0.502807,27.9352,18.8179,-3.62359,0.928312,62.6753,-84.7395,0.163157,0.213087,0.0680215,46.1264,29.4259,41.2051,3.86041,2.27371,8.77067,1.20248,0.584961,0.725372,125.839,84.838,110.214,8.03858,66.501,94.6507,0.442413,0.00650024,0.392456,0.486681,0.872988,0.0864284,0.116925,57.8486,70.0088,standing
0.801946,0.326034,-0.472732,-0.974828,-1.71382,-12.3084,-8.42568,62.6558,-93.6772,0.0793468,0.0892086,0.0388425,12.2572,14.6781,20.769,3.36229,0.784615,1.11891,1.01257,0.497833,0.560516,27.5592,30.413,70.3161,12.2771,64.0456,95.4692,0.658813,0.0585938,0.396423,0.0733198,0.474512,1.24357,0.0584624,60.8302,91.3183,standing
0.731165,0.4395,-0.500691,-1.50406,-2.907,-1.88313,-13.8033,63.5894,-90.8143,0.107218,0.0898722,0.0296937,19.3506,25.4115,21.0511,1.22607,0.420341,0.869823,0.981934,0.61499,0.561981,43.6417,61.077,47.2839,16.0479,64.3964,92.1368,0.52774,0.227142,0.448059,0.469181,0.435488,1.08393,11.1079,62.8764,89.3306,standing
0.731434,0.444518,-0.506125,1.76419,-1.08806,-2.89973,-14.9504,63.5912,-90.964,0.0837662,0.0810955,0.0257956,19.2428,25.5301,24.0348,1.06251,0.590489,1.06577,0.877319,0.582367,0.570129,57.5367,51.1505,49.8586,17.1003,64.4841,93.0137,0.57074,0.224091,0.455261,0.84332,0.124512,0.316072,12.7156,62.1456,88.9798,standing
0.749958,0.441887,-0.477884,-4.24361,-1.18352,6.37103,-13.3498,63.9925,-90.6256,0.0671322,0.0527226,0.0404054,16.594,16.822,12.7188,1.3104,0.945894,2.29831,0.908356,0.575714,0.544342,49.7383,42.1595,24.0111,15.7264,65.3902,93.2184,0.622101,0.334106,0.367676,0.16082,0.124512,0.436429,10.5232,61.5902,85.2382,standing
0.76312,0.418408,-0.453461,-1.6833,-4.63897,1.32414,-8.16437,65.9501,-82.7004,0.0935884,0.0698219,0.0446023,32.703,27.1043,16.313,1.30435,0.565584,1.85979,0.996796,0.568878,0.542023,111.262,70.803,35.6311,10.114,67.0564,85.5305,0.521729,0.204956,0.322113,0.28332,1.29701,0.298572,5.29085,64.601,79.8597,standing
0.706437,0.44683,-0.528199,-4.91445,-6.75807,-0.582831,-9.9643,65.8694,-82.2938,0.0597444,0.0767561,0.0412416,16.627,9.82206,18.6194,1.21221,0.618829,1.50621,0.843567,0.606476,0.618835,33.2883,31.5195,45.1861,12.8617,67.2318,84.6536,0.590607,0.212799,0.449646,0.62668,0.037012,0.646429,7.89243,63.9287,78.3104,standing
0.703023,0.486356,-0.509343,-2.11869,-1.37708,3.13725,-7.62403,66.2105,-76.0649,0.057833,0.0589555,0.03928,19.4597,19.5681,14.051,1.08705,0.636774,1.59029,0.843048,0.589874,0.585693,37.6283,46.4645,30.9564,9.96785,67.3195,79.5089,0.567841,0.338837,0.434814,1.55418,0.032988,0.226428,5.72932,64.1333,73.078,standing
0.678762,0.466218,-0.552471,3.70299,-6.93943,2.24792,-6.329,66.1609,-76.4777,0.0627853,0.112522,0.0758168,44.364,14.81,28.5546,1.78832,0.656427,1.45074,0.820892,0.871338,0.697449,227.322,31.1345,107.641,9.70476,66.998,79.012,0.52124,0.155029,0.311584,0.976681,0.562012,0.456072,3.68313,63.7533,72.6688,standing
0.655124,0.447349,-0.583342,3.90184,5.63724,-3.72806,-8.26446,66.3115,-80.0324,0.0628491,0.0633166,0.0421161,16.3059,22.8527,15.4798,1.53358,0.411575,1.52538,0.823914,0.568481,0.680695,49.0317,49.6455,32.5861,11.1956,67.261,82.2567,0.53595,0.278107,0.50238,0.90668,1.54201,0.488929,4.47238,65.5072,76.8196,standing
0.659452,0.487849,-0.540003,-23.763,-21.3796,9.51785,-1.53862,63.6399,-72.1373,0.118619,0.0960532,0.0676933,30.631,53.4,12.5217,5.4191,2.83487,7.67081,0.987366,0.642334,0.66037,87.3634,114.225,38.1489,7.74627,66.5303,80.8828,0.472229,0.291199,0.403534,0.0666802,2.48701,0.456072,0.906168,58.1994,61.2394,standing
0.519955,0.604708,-0.583495,-3.73293,-7.87064,1.92604,9.90939,57.1559,-61.2855,0.0526645,0.0619969,0.0301949,10.6627,12.0962,8.79269,1.35374,1.19028,0.62764,0.617188,0.72052,0.653656,27.8633,31.2045,19.7389,11.7802,59.5732,62.2333,0.387482,0.378845,0.529388,0.10168,0.102988,0.298572,7.24934,54.9547,59.9825,standing
0.450301,0.645075,-0.60582,-0.301341,0.207463,-2.27661,9.91294,57.4314,-61.3058,0.0552677,0.0573265,0.039983,13.7554,15.3593,9.05814,0.83616,0.777433,0.726087,0.604309,0.865997,0.684509,34.3667,49.803,25.3739,11.3417,58.6671,62.4379,0.28476,0.54837,0.500885,0.15418,0.457012,0.191428,8.65244,55.4516,59.8655,standing
0.558934,0.541158,-0.603791,15.0722,12.5577,-4.50495,3.07105,62.0986,-65.803,0.0676654,0.123279,0.0746132,27.5148,20.0401,22.2279,3.81505,2.43472,2.61204,0.683289,0.898834,0.732819,82.7892,56.453,47.9336,10.1725,65.0687,70.6519,0.427979,0.364502,0.463348,3.60832,1.45451,0.0885717,0.146156,56.9716,60.9763,standing
0.659656,0.435869,-0.583425,-3.46565,2.69195,5.9871,5.05877,62.088,-67.9032,0.100027,0.0834147,0.0679374,26.6142,32.7574,20.1239,2.65157,1.60255,2.1325,0.891876,0.628662,0.707306,62.3667,138.196,66.8315,9.67553,64.5133,71.178,0.47403,0.240204,0.44635,0.766681,1.60799,0.838929,1.43233,59.0471,64.5133,standing
0.682235,0.455596,-0.547306,8.96675,3.45716,-8.68109,0.449097,63.9676,-70.0965,0.0927705,0.183365,0.0628464,47.9739,19.6135,33.913,2.55342,1.35172,2.24123,0.887573,0.841644,0.715088,133.469,65.6055,71.4865,6.72318,65.5656,74.2765,0.48761,0.122498,0.423157,0.30082,0.330488,0.473572,0.146156,59.7486,65.9164,standing
0.651925,0.501636,-0.543436,7.86427,3.12997,-0.7345,-4.45643,65.3521,-73.1542,0.075451,0.158974,0.0609249,29.45,18.8552,24.8117,1.39105,0.850543,2.04686,0.790161,0.981384,0.657013,112.417,38.0955,49.5239,7.42473,66.4133,79.2751,0.417542,0.222656,0.373718,0.749181,0.124512,1.18893,1.49079,62.3794,68.8395,standing
0.647626,0.500626,-0.51743,-9.66117,-7.49467,1.77596,-4.16855,65.1723,-73.2251,0.108019,0.151417,0.141899,38.3448,40.0491,30.7489,2.42688,0.889055,3.48735,0.857239,1.11636,0.662354,142.488,182.055,96.2161,9.55861,66.3549,79.6843,0.235901,0.146667,0.198395,0.11918,2.80201,1.12107,0.760012,62.7302,69.278,standing
0.664979,0.482925,-0.548404,8.91268,5.39012,-10.5796,-3.90281,64.7507,-72.4509,0.0710955,0.0418139,0.0404685,21.4967,24.4865,17.3865,4.32742,0.99048,3.5791,0.848602,0.564209,0.670837,65.6392,57.1355,42.6136,11.8679,66.3841,78.3981,0.50592,0.383057,0.446869,0.679181,0.264512,1.34643,0.116925,62.2333,68.6057,standing
0.667417,0.509717,-0.527017,-0.806723,-3.58367,2.30467,-10.3682,65.9439,-77.5079,0.0368713,0.0417245,0.0331701,10.3335,12.7274,11.295,1.11019,0.482364,0.880119,0.730164,0.61026,0.588379,23.6983,55.617,22.1889,12.4233,66.6472,79.3335,0.54541,0.424011,0.462799,0.55668,0.0720121,0.506428,8.06782,64.5425,75.9427,standing
0.675225,0.456494,-0.559574,8.30071,5.2761,-2.89495,-9.96253,65.9766,-81.5498,0.0475333,0.045738,0.0380674,12.6186,6.33388,12.347,0.815862,0.642312,2.34197,0.774139,0.551544,0.636993,28.4342,31.7605,23.9586,11.4002,66.8518,84.6536,0.573151,0.3815,0.508301,0.81918,0.177012,0.681429,7.98012,64.3087,76.2935,standing
0.712925,0.403096,-0.553108,3.81222,1.45261,1.27959,-9.98468,65.2033,-86.1409,0.0415544,0.0410418,0.0319272,9.18662,2.94507,12.3163,0.988488,0.590007,1.03094,0.802002,0.491852,0.624176,20.0517,6.22799,23.3986,11.6633,66.121,87.869,0.650574,0.329315,0.505157,0.731681,0.00201201,0.0339283,8.00935,63.9871,83.3967,standing
0.732896,0.366719,-0.545746,1.57593,-4.38602,7.3855,-8.12185,65.0758,-86.6635,0.0448893,0.0400524,0.0322052,12.4576,5.34954,12.9726,1.48194,0.505078,0.904064,0.843811,0.430847,0.632324,37.4642,12.882,31.0789,10.0263,66.0918,87.869,0.657867,0.25351,0.501801,0.0558197,0.807012,2.17107,4.64776,63.8994,84.6828,standing
